timestamp,accX,accY,accZ,gyroX,gyroY,gyroZ,rotX,rotY,rotZ,magX,magY,magZ
1763129423720,-0.6687939,6.704689,7.8759756,-0.09636392,-0.19226968,-0.0048869182,0.34711102,-0.020736134,-0.18470128,-7.0875,-2.79375,-35.925003
1763129423721,-0.6687939,6.704689,7.8759756,0.1273653,-0.1791361,-0.068416856,0.34711102,-0.020736134,-0.18470128,-7.0875,-2.79375,-35.925003
1763129423722,-0.3894319,6.282356,8.095517,0.1273653,-0.1791361,-0.068416856,0.34711102,-0.020736134,-0.18470128,-7.0875,-2.79375,-35.925003
1763129423722,-0.3894319,6.282356,8.095517,0.1273653,-0.1791361,-0.068416856,0.34790757,-0.022692412,-0.185446,-7.0875,-2.79375,-35.925003
1763129423737,-0.3894319,6.282356,8.095517,0.1273653,-0.1791361,-0.068416856,0.34790757,-0.022692412,-0.185446,-7.8375,-2.15625,-34.95
1763129423739,-0.3894319,6.282356,8.095517,0.09300416,-0.01802051,-0.06475167,0.34790757,-0.022692412,-0.185446,-7.8375,-2.15625,-34.95
1763129423739,-0.3894319,6.282356,8.095517,0.09300416,-0.01802051,-0.06475167,0.34785354,-0.023282247,-0.18537082,-7.8375,-2.15625,-34.95
1763129423740,-0.94396853,6.3397837,7.722835,0.09300416,-0.01802051,-0.06475167,0.34785354,-0.023282247,-0.18537082,-7.8375,-2.15625,-34.95
1763129423758,-0.94396853,6.3397837,7.722835,0.09300416,-0.01802051,-0.06475167,0.34785354,-0.023282247,-0.18537082,-10.275001,-4.6312504,-33.80625
1763129423759,-0.94396853,6.3397837,7.722835,0.09300416,-0.01802051,-0.06475167,0.34810108,-0.023021616,-0.18556215,-10.275001,-4.6312504,-33.80625
1763129423760,-0.94396853,6.3397837,7.722835,0.053908817,0.029779658,0.0013744457,0.34810108,-0.023021616,-0.18556215,-10.275001,-4.6312504,-33.80625
1763129423760,-0.9559326,6.3326054,7.623533,0.053908817,0.029779658,0.0013744457,0.34810108,-0.023021616,-0.18556215,-10.275001,-4.6312504,-33.80625
1763129423778,-0.9559326,6.3326054,7.623533,0.053908817,0.029779658,0.0013744457,0.34810108,-0.023021616,-0.18556215,-5.7000003,-3.5812502,-34.237503
1763129423781,-0.9559326,6.3326054,7.623533,0.08735366,0.017409647,0.013133593,0.34810108,-0.023021616,-0.18556215,-5.7000003,-3.5812502,-34.237503
1763129423782,-0.74177504,6.439684,7.615158,0.08735366,0.017409647,0.013133593,0.34810108,-0.023021616,-0.18556215,-5.7000003,-3.5812502,-34.237503
1763129423798,-0.74177504,6.439684,7.615158,0.08735366,0.017409647,0.013133593,0.34810108,-0.023021616,-0.18556215,-5.30625,-1.2375001,-35.193752
1763129423801,-0.74177504,6.439684,7.615158,0.12812889,0.010995566,-0.010995566,0.34810108,-0.023021616,-0.18556215,-5.30625,-1.2375001,-35.193752
1763129423802,-0.74177504,6.439684,7.615158,0.12812889,0.010995566,-0.010995566,0.34893686,-0.023053315,-0.1853876,-5.30625,-1.2375001,-35.193752
1763129423803,-0.74177504,6.439684,7.615158,0.12812889,0.010995566,-0.010995566,0.35016617,-0.023168502,-0.18537581,-5.30625,-1.2375001,-35.193752
1763129423804,-0.7800602,6.3601227,7.2969127,0.12812889,0.010995566,-0.010995566,0.35016617,-0.023168502,-0.18537581,-5.30625,-1.2375001,-35.193752
1763129423818,-0.7800602,6.3601227,7.2969127,0.12812889,0.010995566,-0.010995566,0.35016617,-0.023168502,-0.18537581,-7.6125,-3.8437502,-32.30625
1763129423823,-0.7800602,6.3601227,7.2969127,0.082161315,-0.010690134,-0.028405212,0.35016617,-0.023168502,-0.18537581,-7.6125,-3.8437502,-32.30625
1763129423824,-0.7800602,6.3601227,7.2969127,0.082161315,-0.010690134,-0.028405212,0.350948,-0.023333192,-0.18563113,-7.6125,-3.8437502,-32.30625
1763129423825,-0.9302098,6.1513486,7.1078796,0.082161315,-0.010690134,-0.028405212,0.350948,-0.023333192,-0.18563113,-7.6125,-3.8437502,-32.30625
1763129423837,-0.9302098,6.1513486,7.1078796,0.082161315,-0.010690134,-0.028405212,0.350948,-0.023333192,-0.18563113,-5.15625,-2.1750002,-34.612503
1763129423843,-0.9302098,6.1513486,7.1078796,0.024129158,0.02687805,0.005497783,0.350948,-0.023333192,-0.18563113,-5.15625,-2.1750002,-34.612503
1763129423845,-0.9302098,6.1513486,7.1078796,0.024129158,0.02687805,0.005497783,0.35123128,-0.023120131,-0.18548985,-5.15625,-2.1750002,-34.612503
1763129423845,-0.991825,6.145965,7.147959,0.024129158,0.02687805,0.005497783,0.35123128,-0.023120131,-0.18548985,-5.15625,-2.1750002,-34.612503
1763129423858,-0.991825,6.145965,7.147959,0.024129158,0.02687805,0.005497783,0.35123128,-0.023120131,-0.18548985,-5.1000004,-1.66875,-35.175003
1763129423865,-0.991825,6.145965,7.147959,-0.038179047,0.043982264,0.020158539,0.35123128,-0.023120131,-0.18548985,-5.1000004,-1.66875,-35.175003
1763129423866,-1.0941181,6.189634,7.117451,-0.038179047,0.043982264,0.020158539,0.35123128,-0.023120131,-0.18548985,-5.1000004,-1.66875,-35.175003
1763129423878,-1.0941181,6.189634,7.117451,-0.038179047,0.043982264,0.020158539,0.35123128,-0.023120131,-0.18548985,-5.2125,-2.6625001,-34.800003
1763129423886,-1.0941181,6.189634,7.117451,-0.052687086,0.036651887,0.05253437,0.35123128,-0.023120131,-0.18548985,-5.2125,-2.6625001,-34.800003
1763129423887,-1.032503,6.235696,7.2323065,-0.052687086,0.036651887,0.05253437,0.35123128,-0.023120131,-0.18548985,-5.2125,-2.6625001,-34.800003
1763129423899,-1.032503,6.235696,7.2323065,-0.052687086,0.036651887,0.05253437,0.3509172,-0.022550685,-0.18552789,-5.2125,-2.6625001,-34.800003
1763129423900,-1.032503,6.235696,7.2323065,-0.052687086,0.036651887,0.05253437,0.3505668,-0.022050614,-0.18545283,-5.2125,-2.6625001,-34.800003
1763129423900,-1.032503,6.235696,7.2323065,-0.052687086,0.036651887,0.05253437,0.3505668,-0.022050614,-0.18545283,-5.7000003,-1.9687501,-35.11875
1763129423907,-1.032503,6.235696,7.2323065,-0.04535671,-0.02535089,0.022601997,0.3505668,-0.022050614,-0.18545283,-5.7000003,-1.9687501,-35.11875
1763129423908,-0.8458628,6.4211397,7.309475,-0.04535671,-0.02535089,0.022601997,0.3505668,-0.022050614,-0.18545283,-5.7000003,-1.9687501,-35.11875
1763129423917,-0.8458628,6.4211397,7.309475,-0.04535671,-0.02535089,0.022601997,0.35010597,-0.022113563,-0.1857345,-5.7000003,-1.9687501,-35.11875
1763129423918,-0.8458628,6.4211397,7.309475,-0.04535671,-0.02535089,0.022601997,0.35010597,-0.022113563,-0.1857345,-5.5875,-2.4562502,-37.3875
1763129423927,-0.8458628,6.4211397,7.309475,-0.03527744,-0.01970039,-0.018631376,0.35010597,-0.022113563,-0.1857345,-5.5875,-2.4562502,-37.3875
1763129423928,-0.9523434,6.168697,7.425527,-0.03527744,-0.01970039,-0.018631376,0.35010597,-0.022113563,-0.1857345,-5.5875,-2.4562502,-37.3875
1763129423937,-0.9523434,6.168697,7.425527,-0.03527744,-0.01970039,-0.018631376,0.34987253,-0.02218007,-0.18582101,-5.5875,-2.4562502,-37.3875
1763129423938,-0.9523434,6.168697,7.425527,-0.03527744,-0.01970039,-0.018631376,0.34987253,-0.02218007,-0.18582101,-7.4812503,-3.0187502,-32.943752
1763129423949,-0.9523434,6.168697,7.425527,-0.03405571,-0.006261364,0.023365578,0.34987253,-0.02218007,-0.18582101,-7.4812503,-3.0187502,-32.943752
1763129423950,-1.0576276,6.189634,7.489535,-0.03405571,-0.006261364,0.023365578,0.34987253,-0.02218007,-0.18582101,-7.4812503,-3.0187502,-32.943752
1763129423959,-1.0576276,6.189634,7.489535,-0.03405571,-0.006261364,0.023365578,0.34927142,-0.022161273,-0.18594758,-7.4812503,-3.0187502,-32.943752
1763129423960,-1.0576276,6.189634,7.489535,-0.03405571,-0.006261364,0.023365578,0.34927142,-0.022161273,-0.18594758,-5.4187503,-3.6750002,-35.49375
1763129423970,-1.0576276,6.189634,7.489535,-0.008246674,0.037110034,0.062308207,0.34927142,-0.022161273,-0.18594758,-5.4187503,-3.6750002,-35.49375
1763129423971,-0.8769695,6.2584276,7.643872,-0.008246674,0.037110034,0.062308207,0.34927142,-0.022161273,-0.18594758,-5.4187503,-3.6750002,-35.49375
1763129423978,-0.8769695,6.2584276,7.643872,-0.008246674,0.037110034,0.062308207,0.3489859,-0.021827795,-0.18578832,-5.4187503,-3.6750002,-35.49375
1763129423979,-0.8769695,6.2584276,7.643872,-0.008246674,0.037110034,0.062308207,0.3489859,-0.021827795,-0.18578832,-6.525,-1.03125,-33.3375
1763129423991,-0.8769695,6.2584276,7.643872,0.01847866,0.06307179,0.06108648,0.3489859,-0.021827795,-0.18578832,-6.525,-1.03125,-33.3375
1763129423992,-0.82672024,6.378069,7.469196,0.01847866,0.06307179,0.06108648,0.3489859,-0.021827795,-0.18578832,-6.525,-1.03125,-33.3375
1763129423997,-0.82672024,6.378069,7.469196,0.01847866,0.06307179,0.06108648,0.34888718,-0.021478336,-0.18510836,-6.525,-1.03125,-33.3375
1763129423998,-0.82672024,6.378069,7.469196,0.01847866,0.06307179,0.06108648,0.34888718,-0.021478336,-0.18510836,-4.3125,-1.1625,-34.3125
1763129424012,-0.82672024,6.378069,7.469196,0.049480047,0.03940078,0.039553493,0.34888718,-0.021478336,-0.18510836,-4.3125,-1.1625,-34.3125
1763129424013,-0.82911307,6.396613,7.425527,0.049480047,0.03940078,0.039553493,0.34888718,-0.021478336,-0.18510836,-4.3125,-1.1625,-34.3125
1763129424019,-0.82911307,6.396613,7.425527,0.049480047,0.03940078,0.039553493,0.3493574,-0.021400357,-0.18448779,-4.3125,-1.1625,-34.3125
1763129424020,-0.82911307,6.396613,7.425527,0.049480047,0.03940078,0.039553493,0.3493574,-0.021400357,-0.18448779,-5.1375003,-2.1750002,-35.8125
1763129424033,-0.82911307,6.396613,7.425527,0.04657844,0.031001387,0.022449281,0.3493574,-0.021400357,-0.18448779,-5.1375003,-2.1750002,-35.8125
1763129424033,-0.8985049,6.3589263,7.3806615,0.04657844,0.031001387,0.022449281,0.3493574,-0.021400357,-0.18448779,-5.1375003,-2.1750002,-35.8125
1763129424038,-0.8985049,6.3589263,7.3806615,0.04657844,0.031001387,0.022449281,0.34984145,-0.021330962,-0.18404482,-5.1375003,-2.1750002,-35.8125
1763129424039,-0.8985049,6.3589263,7.3806615,0.04657844,0.031001387,0.022449281,0.34984145,-0.021330962,-0.18404482,-6.0937505,-3.5062501,-34.987503
1763129424054,-0.8985049,6.3589263,7.3806615,0.024740024,0.060322896,0.033139415,0.34984145,-0.021330962,-0.18404482,-6.0937505,-3.5062501,-34.987503
1763129424055,-0.87218386,6.270392,7.3950186,0.024740024,0.060322896,0.033139415,0.34984145,-0.021330962,-0.18404482,-6.0937505,-3.5062501,-34.987503
1763129424059,-0.87218386,6.270392,7.3950186,0.024740024,0.060322896,0.033139415,0.35017774,-0.020912565,-0.18357155,-6.0937505,-3.5062501,-34.987503
1763129424060,-0.87218386,6.270392,7.3950186,0.024740024,0.060322896,0.033139415,0.35017774,-0.020912565,-0.18357155,-6.1312504,-3.35625,-34.125
1763129424075,-0.87218386,6.270392,7.3950186,0.018631376,0.07086031,0.054366965,0.35017774,-0.020912565,-0.18357155,-6.1312504,-3.35625,-34.125
1763129424076,-0.89371926,6.337989,7.3429747,0.018631376,0.07086031,0.054366965,0.35017774,-0.020912565,-0.18357155,-6.1312504,-3.35625,-34.125
1763129424078,-0.89371926,6.337989,7.3429747,0.018631376,0.07086031,0.054366965,0.3503328,-0.020499414,-0.18290536,-6.1312504,-3.35625,-34.125
1763129424079,-0.89371926,6.337989,7.3429747,0.018631376,0.07086031,0.054366965,0.3503328,-0.020499414,-0.18290536,-3.6000001,0.112500004,-35.9625
1763129424096,-0.89371926,6.337989,7.3429747,0.030695954,0.07116575,0.053450666,0.3503328,-0.020499414,-0.18290536,-3.6000001,0.112500004,-35.9625
1763129424097,-0.8919246,6.29432,7.405188,0.030695954,0.07116575,0.053450666,0.3503328,-0.020499414,-0.18290536,-3.6000001,0.112500004,-35.9625
1763129424099,-0.8919246,6.29432,7.405188,0.030695954,0.07116575,0.053450666,0.35073757,-0.020064145,-0.18215819,-3.6000001,0.112500004,-35.9625
1763129424100,-0.8919246,6.29432,7.405188,0.030695954,0.07116575,0.053450666,0.35073757,-0.020064145,-0.18215819,-3.6562502,-1.3312501,-33.018753
1763129424118,-0.8919246,6.29432,7.405188,0.030695954,0.07116575,0.053450666,0.35118696,-0.019554313,-0.18139148,-3.6562502,-1.3312501,-33.018753
1763129424119,-0.8919246,6.29432,7.405188,0.04734202,0.08307761,0.054672398,0.35118696,-0.019554313,-0.18139148,-3.6562502,-1.3312501,-33.018753
1763129424121,-0.8919246,6.29432,7.405188,0.04734202,0.08307761,0.054672398,0.35118696,-0.019554313,-0.18139148,-5.34375,-2.5500002,-36.075
1763129424122,-0.8739785,6.3427744,7.320243,0.04734202,0.08307761,0.054672398,0.35118696,-0.019554313,-0.18139148,-5.34375,-2.5500002,-36.075
1763129424139,-0.8739785,6.3427744,7.320243,0.04734202,0.08307761,0.054672398,0.3516768,-0.018959899,-0.1806528,-5.34375,-2.5500002,-36.075
1763129424140,-0.8739785,6.3427744,7.320243,0.04734202,0.08307761,0.054672398,0.3516768,-0.018959899,-0.1806528,-4.1625004,-2.1000001,-34.631252
1763129424141,-0.8739785,6.3427744,7.320243,0.0368046,0.0858265,0.038026333,0.3516768,-0.018959899,-0.1806528,-4.1625004,-2.1000001,-34.631252
1763129424142,-0.91226363,6.3439713,7.167102,0.0368046,0.0858265,0.038026333,0.3516768,-0.018959899,-0.1806528,-4.1625004,-2.1000001,-34.631252
1763129424157,-0.91226363,6.3439713,7.167102,0.0368046,0.0858265,0.038026333,0.3516768,-0.018959899,-0.1806528,-5.49375,-1.6125001,-35.756252
1763129424158,-0.91226363,6.3439713,7.167102,0.0368046,0.0858265,0.038026333,0.35199052,-0.018703822,-0.18005295,-5.49375,-1.6125001,-35.756252
1763129424160,-0.91226363,6.3439713,7.167102,0.00962112,0.043065965,0.043982264,0.35199052,-0.018703822,-0.18005295,-5.49375,-1.6125001,-35.756252
1763129424162,-0.97926265,6.355337,7.1162543,0.00962112,0.043065965,0.043982264,0.35199052,-0.018703822,-0.18005295,-5.49375,-1.6125001,-35.756252
1763129424178,-0.97926265,6.355337,7.1162543,0.00962112,0.043065965,0.043982264,0.35199052,-0.018703822,-0.18005295,-4.8562503,-1.63125,-35.86875
1763129424181,-0.97926265,6.355337,7.1162543,0.012370012,0.017104214,0.039095346,0.35199052,-0.018703822,-0.18005295,-4.8562503,-1.63125,-35.86875
1763129424182,-0.8171489,6.3924255,7.277172,0.012370012,0.017104214,0.039095346,0.35199052,-0.018703822,-0.18005295,-4.8562503,-1.63125,-35.86875
1763129424183,-0.8171489,6.3924255,7.277172,0.012370012,0.017104214,0.039095346,0.35235482,-0.018618861,-0.17973024,-4.8562503,-1.63125,-35.86875
1763129424197,-0.8171489,6.3924255,7.277172,0.012370012,0.017104214,0.039095346,0.35235482,-0.018618861,-0.17973024,-4.93125,-2.7562501,-34.8375
1763129424200,-0.8171489,6.3924255,7.277172,0.012370012,0.017104214,0.039095346,0.35257933,-0.018430414,-0.17917648,-4.93125,-2.7562501,-34.8375
1763129424201,-0.8171489,6.3924255,7.277172,0.011606431,0.037415467,0.01924224,0.35257933,-0.018430414,-0.17917648,-4.93125,-2.7562501,-34.8375
1763129424203,-0.8997013,6.328418,7.248458,0.011606431,0.037415467,0.01924224,0.35257933,-0.018430414,-0.17917648,-4.93125,-2.7562501,-34.8375
1763129424219,-0.8997013,6.328418,7.248458,0.011606431,0.037415467,0.01924224,0.35257933,-0.018430414,-0.17917648,-3.0375001,-1.03125,-34.893753
1763129424222,-0.8997013,6.328418,7.248458,0.008399391,0.032223117,0.037873615,0.35257933,-0.018430414,-0.17917648,-3.0375001,-1.03125,-34.893753
1763129424223,-0.8997013,6.328418,7.248458,0.008399391,0.032223117,0.037873615,0.35272613,-0.018269766,-0.17869887,-3.0375001,-1.03125,-34.893753
1763129424224,-0.9343972,6.3517475,7.2346992,0.008399391,0.032223117,0.037873615,0.35272613,-0.018269766,-0.17869887,-3.0375001,-1.03125,-34.893753
1763129424237,-0.9343972,6.3517475,7.2346992,0.008399391,0.032223117,0.037873615,0.35272613,-0.018269766,-0.17869887,-5.625,-2.4375,-34.518753
1763129424242,-0.90329057,6.3996043,7.2532434,0.008399391,0.032223117,0.037873615,0.35272613,-0.018269766,-0.17869887,-5.625,-2.4375,-34.518753
1763129424243,-0.90329057,6.3996043,7.2532434,0.008399391,0.032223117,0.037873615,0.35277602,-0.018151868,-0.17830236,-5.625,-2.4375,-34.518753
1763129424245,-0.90329057,6.3996043,7.2532434,-0.004734202,0.022296565,0.03924806,0.35277602,-0.018151868,-0.17830236,-5.625,-2.4375,-34.518753
1763129424257,-0.90329057,6.3996043,7.2532434,-0.004734202,0.022296565,0.03924806,0.35277602,-0.018151868,-0.17830236,-4.55625,-2.68125,-35.8125
1763129424264,-0.90329057,6.3996043,7.2532434,-0.004734202,0.022296565,0.03924806,0.35278144,-0.018042408,-0.17793813,-4.55625,-2.68125,-35.8125
1763129424265,-0.8632108,6.4013987,7.351948,-0.004734202,0.022296565,0.03924806,0.35278144,-0.018042408,-0.17793813,-4.55625,-2.68125,-35.8125
1763129424267,-0.8632108,6.4013987,7.351948,-0.012522728,0.021074835,0.029779658,0.35278144,-0.018042408,-0.17793813,-4.55625,-2.68125,-35.8125
1763129424278,-0.8632108,6.4013987,7.351948,-0.012522728,0.021074835,0.029779658,0.35278144,-0.018042408,-0.17793813,-5.1937504,-2.6625001,-36.15
1763129424285,-0.8632108,6.4013987,7.351948,-0.012522728,0.021074835,0.029779658,0.35275927,-0.01786983,-0.17761804,-5.1937504,-2.6625001,-36.15
1763129424286,-0.8632108,6.4013987,7.351948,-0.0050396346,0.026419902,0.013591741,0.35275927,-0.01786983,-0.17761804,-5.1937504,-2.6625001,-36.15
1763129424287,-0.93978107,6.3427744,7.3064837,-0.0050396346,0.026419902,0.013591741,0.35275927,-0.01786983,-0.17761804,-5.1937504,-2.6625001,-36.15
1763129424299,-0.93978107,6.3427744,7.3064837,-0.0050396346,0.026419902,0.013591741,0.35275927,-0.01786983,-0.17761804,-5.86875,-3.3000002,-35.11875
1763129424306,-0.93978107,6.3427744,7.3064837,-0.0018325944,0.014966187,0.021227552,0.35275927,-0.01786983,-0.17761804,-5.86875,-3.3000002,-35.11875
1763129424308,-0.9206385,6.329614,7.309475,-0.0018325944,0.014966187,0.021227552,0.35275927,-0.01786983,-0.17761804,-5.86875,-3.3000002,-35.11875
1763129424318,-0.9206385,6.329614,7.309475,-0.0018325944,0.014966187,0.021227552,0.35275927,-0.01786983,-0.17761804,-3.7687502,-2.8125,-35.7
1763129424323,-0.9206385,6.329614,7.309475,-0.0018325944,0.014966187,0.021227552,0.35274056,-0.017758906,-0.17746235,-3.7687502,-2.8125,-35.7
1763129424326,-0.9206385,6.329614,7.309475,-0.00641408,0.016187917,0.02367101,0.35274056,-0.017758906,-0.17746235,-3.7687502,-2.8125,-35.7
1763129424327,-0.9176475,6.337391,7.30768,-0.00641408,0.016187917,0.02367101,0.35274056,-0.017758906,-0.17746235,-3.7687502,-2.8125,-35.7
1763129424337,-0.9176475,6.337391,7.30768,-0.00641408,0.016187917,0.02367101,0.3526579,-0.017654909,-0.17724562,-3.7687502,-2.8125,-35.7
1763129424339,-0.9176475,6.337391,7.30768,-0.00641408,0.016187917,0.02367101,0.3526579,-0.017654909,-0.17724562,-5.0062504,-2.2875001,-34.8375
1763129424348,-0.9176475,6.337391,7.30768,0.013591741,-9.162972E-4,0.02367101,0.3526579,-0.017654909,-0.17724562,-5.0062504,-2.2875001,-34.8375
1763129424348,-0.8805587,6.3810596,7.288538,0.013591741,-9.162972E-4,0.02367101,0.3526579,-0.017654909,-0.17724562,-5.0062504,-2.2875001,-34.8375
1763129424357,-0.8805587,6.3810596,7.288538,0.013591741,-9.162972E-4,0.02367101,0.3526579,-0.017654909,-0.17724562,-4.7250004,-2.5500002,-33.91875
1763129424358,-0.8805587,6.3810596,7.288538,0.013591741,-9.162972E-4,0.02367101,0.3527442,-0.017761137,-0.17710234,-4.7250004,-2.5500002,-33.91875
1763129424369,-0.8805587,6.3810596,7.288538,0.020922119,3.054324E-4,0.008552107,0.3527442,-0.017761137,-0.17710234,-4.7250004,-2.5500002,-33.91875
1763129424370,-0.82911307,6.384051,7.2586274,0.020922119,3.054324E-4,0.008552107,0.3527442,-0.017761137,-0.17710234,-4.7250004,-2.5500002,-33.91875
1763129424378,-0.82911307,6.384051,7.2586274,0.020922119,3.054324E-4,0.008552107,0.3527442,-0.017761137,-0.17710234,-3.6750002,-1.03125,-35.98125
1763129424379,-0.82911307,6.384051,7.2586274,0.020922119,3.054324E-4,0.008552107,0.35296544,-0.017849632,-0.17697987,-3.6750002,-1.03125,-35.98125
1763129424390,-0.93978107,6.3684974,7.18445,0.020922119,3.054324E-4,0.008552107,0.35296544,-0.017849632,-0.17697987,-3.6750002,-1.03125,-35.98125
1763129424391,-0.93978107,6.3684974,7.18445,-0.0021380268,0.013439025,0.010690134,0.35296544,-0.017849632,-0.17697987,-3.6750002,-1.03125,-35.98125
1763129424398,-0.93978107,6.3684974,7.18445,-0.0021380268,0.013439025,0.010690134,0.35301358,-0.017803561,-0.17661108,-3.6750002,-1.03125,-35.98125
1763129424399,-0.93978107,6.3684974,7.18445,-0.0021380268,0.013439025,0.010690134,0.35301358,-0.017803561,-0.17661108,-7.9687505,-4.4437504,-36.206253
1763129424411,-0.90448695,6.37089,7.2418776,-0.0021380268,0.013439025,0.010690134,0.35301358,-0.017803561,-0.17661108,-7.9687505,-4.4437504,-36.206253
1763129424412,-0.90448695,6.37089,7.2418776,-0.013744458,-0.005345067,0.02443459,0.35301358,-0.017803561,-0.17661108,-7.9687505,-4.4437504,-36.206253
1763129424418,-0.90448695,6.37089,7.2418776,-0.013744458,-0.005345067,0.02443459,0.35299945,-0.017860008,-0.17644824,-7.9687505,-4.4437504,-36.206253
1763129424419,-0.90448695,6.37089,7.2418776,-0.013744458,-0.005345067,0.02443459,0.35299945,-0.017860008,-0.17644824,-5.175,-2.8125,-35.193752
1763129424432,-0.90448695,6.37089,7.2418776,-0.00641408,-0.011148282,0.020769402,0.35299945,-0.017860008,-0.17644824,-5.175,-2.8125,-35.193752
1763129424433,-0.84107715,6.3888364,7.342376,-0.00641408,-0.011148282,0.020769402,0.35299945,-0.017860008,-0.17644824,-5.175,-2.8125,-35.193752
1763129424437,-0.84107715,6.3888364,7.342376,-0.00641408,-0.011148282,0.020769402,0.35297728,-0.018014187,-0.17630623,-5.175,-2.8125,-35.193752
1763129424438,-0.84107715,6.3888364,7.342376,-0.00641408,-0.011148282,0.020769402,0.35297728,-0.018014187,-0.17630623,-3.43125,-0.975,-35.925003
1763129424453,-0.84107715,6.3888364,7.342376,0.011148282,-0.0025961753,0.011453714,0.35297728,-0.018014187,-0.17630623,-3.43125,-0.975,-35.925003
1763129424454,-0.9026923,6.3774705,7.286743,0.011148282,-0.0025961753,0.011453714,0.35297728,-0.018014187,-0.17630623,-3.43125,-0.975,-35.925003
1763129424458,-0.9026923,6.3774705,7.286743,0.011148282,-0.0025961753,0.011453714,0.3530381,-0.018142946,-0.17609024,-3.43125,-0.975,-35.925003
1763129424460,-0.9026923,6.3774705,7.286743,0.011148282,-0.0025961753,0.011453714,0.3530381,-0.018142946,-0.17609024,-6.01875,-3.0187502,-36.45
1763129424474,-0.9026923,6.3774705,7.286743,0.0058032153,-0.009315688,0.016493348,0.3530381,-0.018142946,-0.17609024,-6.01875,-3.0187502,-36.45
1763129424475,-0.90089774,6.3918276,7.2376904,0.0058032153,-0.009315688,0.016493348,0.3530381,-0.018142946,-0.17609024,-6.01875,-3.0187502,-36.45
1763129424479,-0.90089774,6.3918276,7.2376904,0.0058032153,-0.009315688,0.016493348,0.3530922,-0.018284049,-0.17600419,-6.01875,-3.0187502,-36.45
1763129424481,-0.90089774,6.3918276,7.2376904,0.0058032153,-0.009315688,0.016493348,0.3530922,-0.018284049,-0.17600419,-6.3187504,-3.7125,-34.8375
1763129424495,-0.90089774,6.3918276,7.2376904,-0.013744458,0.0015271619,0.019547673,0.3530922,-0.018284049,-0.17600419,-6.3187504,-3.7125,-34.8375
1763129424496,-0.9200403,6.2961144,7.227521,-0.013744458,0.0015271619,0.019547673,0.3530922,-0.018284049,-0.17600419,-6.3187504,-3.7125,-34.8375
1763129424498,-0.9200403,6.2961144,7.227521,-0.013744458,0.0015271619,0.019547673,0.35304987,-0.01829159,-0.17581521,-6.3187504,-3.7125,-34.8375
1763129424499,-0.9200403,6.2961144,7.227521,-0.013744458,0.0015271619,0.019547673,0.35304987,-0.01829159,-0.17581521,-4.5375004,-2.025,-34.912502
1763129424516,-0.9200403,6.2961144,7.227521,-0.014966187,-0.01725693,0.023365578,0.35304987,-0.01829159,-0.17581521,-4.5375004,-2.025,-34.912502
1763129424517,-0.8805587,6.393622,7.262815,-0.014966187,-0.01725693,0.023365578,0.35304987,-0.01829159,-0.17581521,-4.5375004,-2.025,-34.912502
1763129424518,-0.8805587,6.393622,7.262815,-0.014966187,-0.01725693,0.023365578,0.35304987,-0.01829159,-0.17581521,-5.83125,-2.79375,-34.18125
1763129424538,-0.8805587,6.393622,7.262815,-0.014966187,-0.01725693,0.023365578,0.3528643,-0.018467123,-0.17578755,-5.83125,-2.79375,-34.18125
1763129424540,-0.8805587,6.393622,7.262815,-0.009162972,-0.029016078,0.0070249448,0.3528643,-0.018467123,-0.17578755,-5.83125,-2.79375,-34.18125
1763129424541,-0.8805587,6.393622,7.262815,-0.009162972,-0.029016078,0.0070249448,0.3527923,-0.018735245,-0.17578751,-5.83125,-2.79375,-34.18125
1763129424543,-0.8805587,6.393622,7.262815,-0.009162972,-0.029016078,0.0070249448,0.3527923,-0.018735245,-0.17578751,-3.825,-0.24375,-34.725002
1763129424545,-0.8739785,6.361917,7.2215385,-0.009162972,-0.029016078,0.0070249448,0.3527923,-0.018735245,-0.17578751,-3.825,-0.24375,-34.725002
1763129424558,-0.8739785,6.361917,7.2215385,-0.022143848,-0.038026333,0.011606431,0.3527923,-0.018735245,-0.17578751,-3.825,-0.24375,-34.725002
1763129424559,-0.8739785,6.361917,7.2215385,-0.022143848,-0.038026333,0.011606431,0.3525886,-0.019094184,-0.17582372,-3.825,-0.24375,-34.725002
1763129424560,-0.8739785,6.361917,7.2215385,-0.022143848,-0.038026333,0.011606431,0.3525886,-0.019094184,-0.17582372,-4.8562503,-1.6125001,-35.11875
1763129424561,-0.93320084,6.315257,7.2137623,-0.022143848,-0.038026333,0.011606431,0.3525886,-0.019094184,-0.17582372,-4.8562503,-1.6125001,-35.11875
1763129424578,-0.93320084,6.315257,7.2137623,-0.022143848,-0.038026333,0.011606431,0.3525886,-0.019094184,-0.17582372,-5.9812503,-1.8750001,-34.93125
1763129424579,-0.93320084,6.315257,7.2137623,-0.028252495,-0.03924806,0.014660755,0.3525886,-0.019094184,-0.17582372,-5.9812503,-1.8750001,-34.93125
1763129424580,-0.93320084,6.315257,7.2137623,-0.028252495,-0.03924806,0.014660755,0.35229668,-0.019393763,-0.17600377,-5.9812503,-1.8750001,-34.93125
1763129424581,-0.93978107,6.2416778,7.2245297,-0.028252495,-0.03924806,0.014660755,0.35229668,-0.019393763,-0.17600377,-5.9812503,-1.8750001,-34.93125
1763129424597,-0.93978107,6.2416778,7.2245297,-0.028252495,-0.03924806,0.014660755,0.35229668,-0.019393763,-0.17600377,-6.5625005,-2.1750002,-35.325
1763129424599,-0.93978107,6.2416778,7.2245297,-0.03573559,-0.061239194,0.023365578,0.35229668,-0.019393763,-0.17600377,-6.5625005,-2.1750002,-35.325
1763129424599,-0.93978107,6.2416778,7.2245297,-0.03573559,-0.061239194,0.023365578,0.35180402,-0.019907475,-0.17627892,-6.5625005,-2.1750002,-35.325
1763129424601,-0.84107715,6.2883377,7.2807612,-0.03573559,-0.061239194,0.023365578,0.35180402,-0.019907475,-0.17627892,-6.5625005,-2.1750002,-35.325
1763129424620,-0.84107715,6.2883377,7.2807612,-0.03573559,-0.061239194,0.023365578,0.35180402,-0.019907475,-0.17627892,-7.36875,-3.6375,-33.206253
1763129424621,-0.84107715,6.2883377,7.2807612,-0.03573559,-0.061239194,0.023365578,0.35120904,-0.020504706,-0.17645091,-7.36875,-3.6375,-33.206253
1763129424623,-0.84107715,6.2883377,7.2807612,-0.045051277,-0.065667965,0.013591741,0.35120904,-0.020504706,-0.17645091,-7.36875,-3.6375,-33.206253
1763129424625,-0.7926225,6.3475604,7.4715886,-0.045051277,-0.065667965,0.013591741,0.35120904,-0.020504706,-0.17645091,-7.36875,-3.6375,-33.206253
1763129424638,-0.7926225,6.3475604,7.4715886,-0.045051277,-0.065667965,0.013591741,0.35120904,-0.020504706,-0.17645091,-4.2937503,-1.1812501,-35.831253
1763129424643,-0.7926225,6.3475604,7.4715886,-0.045051277,-0.065667965,0.013591741,0.3506431,-0.02101074,-0.17648107,-4.2937503,-1.1812501,-35.831253
1763129424644,-0.7926225,6.3475604,7.4715886,-0.031917684,-0.050243627,0.011911863,0.3506431,-0.02101074,-0.17648107,-4.2937503,-1.1812501,-35.831253
1763129424645,-0.8961121,6.3254266,7.569096,-0.031917684,-0.050243627,0.011911863,0.3506431,-0.02101074,-0.17648107,-4.2937503,-1.1812501,-35.831253
1763129424659,-0.8961121,6.3254266,7.569096,-0.031917684,-0.050243627,0.011911863,0.3506431,-0.02101074,-0.17648107,-6.4875,-3.45,-35.268753
1763129424663,-0.8961121,6.3254266,7.569096,-0.031917684,-0.050243627,0.011911863,0.35026345,-0.021384694,-0.17657287,-6.4875,-3.45,-35.268753
1763129424664,-0.70348984,6.474978,7.6552377,-0.031917684,-0.050243627,0.011911863,0.35026345,-0.021384694,-0.17657287,-6.4875,-3.45,-35.268753
1763129424666,-0.70348984,6.474978,7.6552377,-0.0050396346,-0.03375028,0.032375835,0.35026345,-0.021384694,-0.17657287,-6.4875,-3.45,-35.268753
1763129424677,-0.70348984,6.474978,7.6552377,-0.0050396346,-0.03375028,0.032375835,0.35026345,-0.021384694,-0.17657287,-4.0875,-0.95625,-34.162502
1763129424684,-0.70348984,6.474978,7.6552377,0.015729768,-0.011453714,0.016035201,0.35026345,-0.021384694,-0.17657287,-4.0875,-0.95625,-34.162502
1763129424684,-0.6155536,6.5342007,7.481758,0.015729768,-0.011453714,0.016035201,0.35026345,-0.021384694,-0.17657287,-4.0875,-0.95625,-34.162502
1763129424697,-0.6155536,6.5342007,7.481758,0.015729768,-0.011453714,0.016035201,0.35026345,-0.021384694,-0.17657287,-3.3937502,-1.125,-35.737503
1763129424705,-0.6155536,6.5342007,7.481758,0.021838415,-0.004123337,0.0030543238,0.35026345,-0.021384694,-0.17657287,-3.3937502,-1.125,-35.737503
1763129424706,-0.6155536,6.5342007,7.481758,0.021838415,-0.004123337,0.0030543238,0.35018048,-0.021712122,-0.17622066,-3.3937502,-1.125,-35.737503
1763129424707,-0.6329016,6.556334,7.4530444,0.021838415,-0.004123337,0.0030543238,0.35018048,-0.021712122,-0.17622066,-3.3937502,-1.125,-35.737503
1763129424708,-0.6329016,6.556334,7.4530444,0.021838415,-0.004123337,0.0030543238,0.35041,-0.02199431,-0.17564589,-3.3937502,-1.125,-35.737503
1763129424718,-0.6329016,6.556334,7.4530444,0.021838415,-0.004123337,0.0030543238,0.35041,-0.02199431,-0.17564589,-4.9125004,-1.3125,-35.5125
1763129424725,-0.6329016,6.556334,7.4530444,0.01527162,0.02367101,-0.0018325944,0.35041,-0.02199431,-0.17564589,-4.9125004,-1.3125,-35.5125
1763129424726,-0.65922266,6.5772715,7.3567333,0.01527162,0.02367101,-0.0018325944,0.35041,-0.02199431,-0.17564589,-4.9125004,-1.3125,-35.5125
1763129424739,-0.65922266,6.5772715,7.3567333,0.01527162,0.02367101,-0.0018325944,0.35067996,-0.021984408,-0.17511149,-4.9125004,-1.3125,-35.5125
1763129424740,-0.65922266,6.5772715,7.3567333,0.01527162,0.02367101,-0.0018325944,0.35067996,-0.021984408,-0.17511149,-6.24375,-2.5875,-35.11875
1763129424747,-0.65922266,6.5772715,7.3567333,0.021685699,0.03161225,-0.014660755,0.35067996,-0.021984408,-0.17511149,-6.24375,-2.5875,-35.11875
1763129424748,-0.68135625,6.5228343,7.2137623,0.021685699,0.03161225,-0.014660755,0.35067996,-0.021984408,-0.17511149,-6.24375,-2.5875,-35.11875
1763129424759,-0.68135625,6.5228343,7.2137623,0.021685699,0.03161225,-0.014660755,0.35067996,-0.021984408,-0.17511149,-5.5687504,-2.90625,-34.237503
1763129424760,-0.68135625,6.5228343,7.2137623,0.021685699,0.03161225,-0.014660755,0.3511518,-0.021807062,-0.17461456,-5.5687504,-2.90625,-34.237503
1763129424768,-0.68135625,6.5228343,7.2137623,0.027488915,0.03573559,-0.032833982,0.3511518,-0.021807062,-0.17461456,-5.5687504,-2.90625,-34.237503
1763129424769,-0.7304091,6.358328,7.064809,0.027488915,0.03573559,-0.032833982,0.3511518,-0.021807062,-0.17461456,-5.5687504,-2.90625,-34.237503
1763129424777,-0.7304091,6.358328,7.064809,0.027488915,0.03573559,-0.032833982,0.3517635,-0.021521837,-0.17434978,-5.5687504,-2.90625,-34.237503
1763129424778,-0.7304091,6.358328,7.064809,0.027488915,0.03573559,-0.032833982,0.3517635,-0.021521837,-0.17434978,-5.83125,-2.6625001,-36.487503
1763129424789,-0.7304091,6.358328,7.064809,0.027947064,0.023976443,-0.03604102,0.3517635,-0.021521837,-0.17434978,-5.83125,-2.6625001,-36.487503
1763129424790,-0.7962117,6.233901,6.954739,0.027947064,0.023976443,-0.03604102,0.3517635,-0.021521837,-0.17434978,-5.83125,-2.6625001,-36.487503
1763129424798,-0.7962117,6.233901,6.954739,0.027947064,0.023976443,-0.03604102,0.35231167,-0.021283608,-0.17434292,-5.83125,-2.6625001,-36.487503
1763129424799,-0.7962117,6.233901,6.954739,0.027947064,0.023976443,-0.03604102,0.35231167,-0.021283608,-0.17434292,-5.8500004,-3.3000002,-35.86875
1763129424809,-0.7962117,6.233901,6.954739,0.010690134,0.00320704,-0.03497201,0.35231167,-0.021283608,-0.17434292,-5.8500004,-3.3000002,-35.86875
1763129424810,-0.8279166,6.1830535,7.0205417,0.010690134,0.00320704,-0.03497201,0.35231167,-0.021283608,-0.17434292,-5.8500004,-3.3000002,-35.86875
1763129424819,-0.8279166,6.1830535,7.0205417,0.010690134,0.00320704,-0.03497201,0.35262638,-0.021134997,-0.17457685,-5.8500004,-3.3000002,-35.86875
1763129424819,-0.8279166,6.1830535,7.0205417,0.010690134,0.00320704,-0.03497201,0.35262638,-0.021134997,-0.17457685,-3.8437502,-1.5562501,-35.756252
1763129424831,-0.8279166,6.1830535,7.0205417,-0.0050396346,0.021991132,-0.028099779,0.35262638,-0.021134997,-0.17457685,-3.8437502,-1.5562501,-35.756252
1763129424832,-0.8386843,6.2033925,7.2101727,-0.0050396346,0.021991132,-0.028099779,0.35262638,-0.021134997,-0.17457685,-3.8437502,-1.5562501,-35.756252
1763129424837,-0.8386843,6.2033925,7.2101727,-0.0050396346,0.021991132,-0.028099779,0.3526925,-0.020786978,-0.17481826,-3.8437502,-1.5562501,-35.756252
1763129424838,-0.8386843,6.2033925,7.2101727,-0.0050396346,0.021991132,-0.028099779,0.3526925,-0.020786978,-0.17481826,-6.2250004,-2.7375002,-34.7625
1763129424852,-0.8386843,6.2033925,7.2101727,0.0035124724,0.046425723,-0.025961753,0.3526925,-0.020786978,-0.17481826,-6.2250004,-2.7375002,-34.7625
1763129424853,-0.79142606,6.3134627,7.2041907,0.0035124724,0.046425723,-0.025961753,0.3526925,-0.020786978,-0.17481826,-6.2250004,-2.7375002,-34.7625
1763129424858,-0.79142606,6.3134627,7.2041907,0.0035124724,0.046425723,-0.025961753,0.35270452,-0.020224713,-0.17496476,-6.2250004,-2.7375002,-34.7625
1763129424859,-0.79142606,6.3134627,7.2041907,0.0035124724,0.046425723,-0.025961753,0.35270452,-0.020224713,-0.17496476,-4.9875,-2.4562502,-34.48125
1763129424873,-0.79142606,6.3134627,7.2041907,0.012370012,0.03940078,-0.011300999,0.35270452,-0.020224713,-0.17496476,-4.9875,-2.4562502,-34.48125
1763129424873,-0.9637093,6.3074803,7.2293153,0.012370012,0.03940078,-0.011300999,0.35270452,-0.020224713,-0.17496476,-4.9875,-2.4562502,-34.48125
1763129424879,-0.9637093,6.3074803,7.2293153,0.012370012,0.03940078,-0.011300999,0.35291013,-0.019865075,-0.17480403,-4.9875,-2.4562502,-34.48125
1763129424880,-0.9637093,6.3074803,7.2293153,0.012370012,0.03940078,-0.011300999,0.35291013,-0.019865075,-0.17480403,-5.8125,-2.8125,-34.93125
1763129424894,-0.9637093,6.3074803,7.2293153,-0.0140498895,0.011453714,0.029932374,0.35291013,-0.019865075,-0.17480403,-5.8125,-2.8125,-34.93125
1763129424894,-0.91525465,6.1848483,7.2849483,-0.0140498895,0.011453714,0.029932374,0.35291013,-0.019865075,-0.17480403,-5.8125,-2.8125,-34.93125
1763129424900,-0.91525465,6.1848483,7.2849483,-0.0140498895,0.011453714,0.029932374,0.35291013,-0.019865075,-0.17480403,-9.8625,-6.6000004,-30.431252
1763129424900,-0.91525465,6.1848483,7.2849483,-0.0140498895,0.011453714,0.029932374,0.35280764,-0.019722972,-0.17478469,-9.8625,-6.6000004,-30.431252
1763129424915,-0.82911307,6.1842504,7.535597,-0.0140498895,0.011453714,0.029932374,0.35280764,-0.019722972,-0.17478469,-9.8625,-6.6000004,-30.431252
1763129424916,-0.82911307,6.1842504,7.535597,-0.0013744457,0.032833982,0.12156209,0.35280764,-0.019722972,-0.17478469,-9.8625,-6.6000004,-30.431252
1763129424917,-0.82911307,6.1842504,7.535597,-0.0013744457,0.032833982,0.12156209,0.3526307,-0.019769238,-0.17380586,-9.8625,-6.6000004,-30.431252
1763129424919,-0.82911307,6.1842504,7.535597,-0.0013744457,0.032833982,0.12156209,0.3526307,-0.019769238,-0.17380586,-4.51875,-2.1750002,-34.725002
1763129424935,-0.82911307,6.1842504,7.535597,0.051923506,0.10140356,0.19440772,0.3526307,-0.019769238,-0.17380586,-4.51875,-2.1750002,-34.725002
1763129424936,-0.82612205,6.1304116,7.539186,0.051923506,0.10140356,0.19440772,0.3526307,-0.019769238,-0.17380586,-4.51875,-2.1750002,-34.725002
1763129424938,-0.82612205,6.1304116,7.539186,0.051923506,0.10140356,0.19440772,0.35277596,-0.019604823,-0.17177565,-4.51875,-2.1750002,-34.725002
1763129424939,-0.82612205,6.1304116,7.539186,0.051923506,0.10140356,0.19440772,0.35277596,-0.019604823,-0.17177565,-5.4750004,-3.2250001,-36.09375
1763129424958,-0.82612205,6.1304116,7.539186,0.051923506,0.10140356,0.19440772,0.3539227,-0.019578552,-0.1688888,-5.4750004,-3.2250001,-36.09375
1763129424960,-0.82612205,6.1304116,7.539186,0.16233732,0.13729186,0.2761109,0.3539227,-0.019578552,-0.1688888,-5.4750004,-3.2250001,-36.09375
1763129424961,-0.91525465,6.1794643,7.615756,0.16233732,0.13729186,0.2761109,0.3539227,-0.019578552,-0.1688888,-5.4750004,-3.2250001,-36.09375
1763129424963,-0.91525465,6.1794643,7.615756,0.16233732,0.13729186,0.2761109,0.3539227,-0.019578552,-0.1688888,-5.775,-1.5187501,-35.41875
1763129424979,-0.91525465,6.1794643,7.615756,0.16233732,0.13729186,0.2761109,0.3564828,-0.019637324,-0.16527481,-5.775,-1.5187501,-35.41875
1763129424980,-0.91525465,6.1794643,7.615756,0.31337363,0.17944153,0.36163196,0.3564828,-0.019637324,-0.16527481,-5.775,-1.5187501,-35.41875
1763129424981,-0.91525465,6.1794643,7.615756,0.31337363,0.17944153,0.36163196,0.3564828,-0.019637324,-0.16527481,-3.3937502,-1.125,-35.737503
1763129424982,-0.83389866,6.318846,7.609176,0.31337363,0.17944153,0.36163196,0.3564828,-0.019637324,-0.16527481,-3.3937502,-1.125,-35.737503
1763129424998,-0.7256235,6.588039,7.4907312,0.31337363,0.17944153,0.36163196,0.3564828,-0.019637324,-0.16527481,-3.3937502,-1.125,-35.737503
1763129424999,-0.7256235,6.588039,7.4907312,0.31337363,0.17944153,0.36163196,0.3564828,-0.019637324,-0.16527481,-6.1687503,-2.90625,-36.825
1763129425000,-0.7256235,6.588039,7.4907312,0.31337363,0.17944153,0.36163196,0.3602064,-0.019521367,-0.16115665,-6.1687503,-2.90625,-36.825
1763129425001,-0.7256235,6.588039,7.4907312,0.42302385,0.22800528,0.37079492,0.3602064,-0.019521367,-0.16115665,-6.1687503,-2.90625,-36.825
1763129425019,-0.7256235,6.588039,7.4907312,0.42302385,0.22800528,0.37079492,0.3602064,-0.019521367,-0.16115665,-4.3500004,-2.60625,-33.1875
1763129425020,-0.7256235,6.588039,7.4907312,0.42302385,0.22800528,0.37079492,0.364122,-0.018721176,-0.15751201,-4.3500004,-2.60625,-33.1875
1763129425021,-0.74476606,6.7782683,7.027122,0.42302385,0.22800528,0.37079492,0.364122,-0.018721176,-0.15751201,-4.3500004,-2.60625,-33.1875
1763129425022,-0.74476606,6.7782683,7.027122,0.4045452,0.26190826,0.25992295,0.364122,-0.018721176,-0.15751201,-4.3500004,-2.60625,-33.1875
1763129425037,-0.74476606,6.7782683,7.027122,0.4045452,0.26190826,0.25992295,0.364122,-0.018721176,-0.15751201,-4.93125,-2.60625,-36.54375
1763129425040,-0.74476606,6.7782683,7.027122,0.2837467,0.21746786,0.15332706,0.364122,-0.018721176,-0.15751201,-4.93125,-2.60625,-36.54375
1763129425042,-0.74476606,6.7782683,7.027122,0.2837467,0.21746786,0.15332706,0.3674529,-0.017727194,-0.15489393,-4.93125,-2.60625,-36.54375
1763129425043,-1.0109676,6.6969123,6.771688,0.2837467,0.21746786,0.15332706,0.3674529,-0.017727194,-0.15489393,-4.93125,-2.60625,-36.54375
1763129425059,-1.0109676,6.6969123,6.771688,0.2837467,0.21746786,0.15332706,0.3674529,-0.017727194,-0.15489393,-3.9375002,-2.53125,-35.662502
1763129425062,-1.035494,6.431907,7.29452,0.2837467,0.21746786,0.15332706,0.3674529,-0.017727194,-0.15489393,-3.9375002,-2.53125,-35.662502
1763129425063,-1.035494,6.431907,7.29452,0.182954,0.18890993,0.12064579,0.3674529,-0.017727194,-0.15489393,-3.9375002,-2.53125,-35.662502
1763129425064,-1.035494,6.431907,7.29452,0.182954,0.18890993,0.12064579,0.36992487,-0.016482184,-0.15333635,-3.9375002,-2.53125,-35.662502
1763129425078,-1.035494,6.431907,7.29452,0.182954,0.18890993,0.12064579,0.36992487,-0.016482184,-0.15333635,-3.3937502,-2.7375002,-36.05625
1763129425082,-1.035494,6.431907,7.29452,0.21930045,0.20876303,0.13897173,0.36992487,-0.016482184,-0.15333635,-3.3937502,-2.7375002,-36.05625
1763129425084,-1.035494,6.431907,7.29452,0.21930045,0.20876303,0.13897173,0.37180468,-0.0151918745,-0.15191205,-3.3937502,-2.7375002,-36.05625
1763129425085,-1.1090733,6.404988,7.476374,0.21930045,0.20876303,0.13897173,0.37180468,-0.0151918745,-0.15191205,-3.3937502,-2.7375002,-36.05625
1763129425098,-1.1090733,6.404988,7.476374,0.21930045,0.20876303,0.13897173,0.37180468,-0.0151918745,-0.15191205,-3.80625,-3.45,-34.78125
1763129425104,-1.1090733,6.404988,7.476374,0.21930045,0.20876303,0.13897173,0.3740923,-0.013928167,-0.1507291,-3.80625,-3.45,-34.78125
1763129425104,-1.183849,6.6125655,7.436893,0.21930045,0.20876303,0.13897173,0.3740923,-0.013928167,-0.1507291,-3.80625,-3.45,-34.78125
1763129425106,-1.183849,6.6125655,7.436893,0.29290965,0.21334453,0.13561198,0.3740923,-0.013928167,-0.1507291,-3.80625,-3.45,-34.78125
1763129425117,-1.183849,6.6125655,7.436893,0.29290965,0.21334453,0.13561198,0.3740923,-0.013928167,-0.1507291,-2.7,-1.5937501,-35.25
1763129425126,-1.183849,6.6125655,7.436893,0.29290965,0.21334453,0.13561198,0.37670094,-0.01239354,-0.14965853,-2.7,-1.5937501,-35.25
1763129425127,-1.183849,6.6125655,7.436893,0.30115634,0.23243405,0.116522454,0.37670094,-0.01239354,-0.14965853,-2.7,-1.5937501,-35.25
1763129425128,-1.1790633,6.727421,7.186843,0.30115634,0.23243405,0.116522454,0.37670094,-0.01239354,-0.14965853,-2.7,-1.5937501,-35.25
1763129425138,-1.1790633,6.727421,7.186843,0.30115634,0.23243405,0.116522454,0.37670094,-0.01239354,-0.14965853,-2.1375,-2.7562501,-34.4625
1763129425146,-1.1790633,6.727421,7.186843,0.31413722,0.2272417,0.1556178,0.37670094,-0.01239354,-0.14965853,-2.1375,-2.7562501,-34.4625
1763129425146,-0.9170493,6.760322,7.033104,0.31413722,0.2272417,0.1556178,0.37670094,-0.01239354,-0.14965853,-2.1375,-2.7562501,-34.4625
1763129425158,-0.9170493,6.760322,7.033104,0.31413722,0.2272417,0.1556178,0.37973195,-0.011095805,-0.14804399,-2.1375,-2.7562501,-34.4625
1763129425160,-0.9170493,6.760322,7.033104,0.31413722,0.2272417,0.1556178,0.37973195,-0.011095805,-0.14804399,-3.9562502,-3.1875002,-36.412502
1763129425168,-0.9170493,6.760322,7.033104,0.33078328,0.21670428,0.16584979,0.37973195,-0.011095805,-0.14804399,-3.9562502,-3.1875002,-36.412502
1763129425169,-0.6903293,6.931409,6.6741805,0.33078328,0.21670428,0.16584979,0.37973195,-0.011095805,-0.14804399,-3.9562502,-3.1875002,-36.412502
1763129425178,-0.6903293,6.931409,6.6741805,0.33078328,0.21670428,0.16584979,0.38295743,-0.010191937,-0.14567561,-3.9562502,-3.1875002,-36.412502
1763129425178,-0.6903293,6.931409,6.6741805,0.33078328,0.21670428,0.16584979,0.38295743,-0.010191937,-0.14567561,-4.1062503,-4.0125003,-34.40625
1763129425187,-0.6903293,6.931409,6.6741805,0.2751946,0.17333288,0.12400555,0.38295743,-0.010191937,-0.14567561,-4.1062503,-4.0125003,-34.40625
1763129425188,-0.6155536,7.1629148,6.4157557,0.2751946,0.17333288,0.12400555,0.38295743,-0.010191937,-0.14567561,-4.1062503,-4.0125003,-34.40625
1763129425197,-0.6155536,7.1629148,6.4157557,0.2751946,0.17333288,0.12400555,0.38605136,-0.009623695,-0.14314033,-4.1062503,-4.0125003,-34.40625
1763129425198,-0.6155536,7.1629148,6.4157557,0.2751946,0.17333288,0.12400555,0.38605136,-0.009623695,-0.14314033,-4.78125,-6.0937505,-34.818752
1763129425208,-0.6155536,7.1629148,6.4157557,0.16722423,0.13713914,0.10140356,0.38605136,-0.009623695,-0.14314033,-4.78125,-6.0937505,-34.818752
1763129425209,-0.6334998,7.194021,6.1363935,0.16722423,0.13713914,0.10140356,0.38605136,-0.009623695,-0.14314033,-4.78125,-6.0937505,-34.818752
1763129425218,-0.6334998,7.194021,6.1363935,0.16722423,0.13713914,0.10140356,0.38852283,-0.009193495,-0.14060993,-4.78125,-6.0937505,-34.818752
1763129425219,-0.6334998,7.194021,6.1363935,0.16722423,0.13713914,0.10140356,0.38852283,-0.009193495,-0.14060993,-1.9312501,-2.3812501,-34.2
1763129425230,-0.6334998,7.194021,6.1363935,0.061239194,0.08704823,0.09697478,0.38852283,-0.009193495,-0.14060993,-1.9312501,-2.3812501,-34.2
1763129425231,-0.56590253,7.2711897,6.3888364,0.061239194,0.08704823,0.09697478,0.38852283,-0.009193495,-0.14060993,-1.9312501,-2.3812501,-34.2
1763129425238,-0.56590253,7.2711897,6.3888364,0.061239194,0.08704823,0.09697478,0.39021254,-0.009024541,-0.13832618,-1.9312501,-2.3812501,-34.2
1763129425239,-0.56590253,7.2711897,6.3888364,0.061239194,0.08704823,0.09697478,0.39021254,-0.009024541,-0.13832618,-3.5812502,-3.0937502,-36.018753
1763129425251,-0.5102694,7.227521,7.0061846,0.061239194,0.08704823,0.09697478,0.39021254,-0.009024541,-0.13832618,-3.5812502,-3.0937502,-36.018753
1763129425252,-0.5102694,7.227521,7.0061846,0.065667965,0.080176,0.08689552,0.39021254,-0.009024541,-0.13832618,-3.5812502,-3.0937502,-36.018753
1763129425259,-0.5102694,7.227521,7.0061846,0.065667965,0.080176,0.08689552,0.39166403,-0.0089552,-0.13608122,-3.5812502,-3.0937502,-36.018753
1763129425261,-0.5102694,7.227521,7.0061846,0.065667965,0.080176,0.08689552,0.39166403,-0.0089552,-0.13608122,-5.4,-5.2875004,-35.362503
1763129425271,-0.5102694,7.227521,7.0061846,0.20952661,0.24297146,0.04734202,0.39166403,-0.0089552,-0.13608122,-5.4,-5.2875004,-35.362503
1763129425272,-0.7848458,6.948757,6.4271216,0.20952661,0.24297146,0.04734202,0.39166403,-0.0089552,-0.13608122,-5.4,-5.2875004,-35.362503
1763129425277,-0.7848458,6.948757,6.4271216,0.20952661,0.24297146,0.04734202,0.39386004,-0.0074738716,-0.1336023,-5.4,-5.2875004,-35.362503
1763129425278,-0.7848458,6.948757,6.4271216,0.20952661,0.24297146,0.04734202,0.39386004,-0.0074738716,-0.1336023,-2.9625,-3.7687502,-36.7125
1763129425292,-0.7848458,6.948757,6.4271216,0.2922988,-0.01725693,-0.05650499,0.39386004,-0.0074738716,-0.1336023,-2.9625,-3.7687502,-36.7125
1763129425293,-1.102493,7.1898336,5.2869415,0.2922988,-0.01725693,-0.05650499,0.39386004,-0.0074738716,-0.1336023,-2.9625,-3.7687502,-36.7125
1763129425298,-1.102493,7.1898336,5.2869415,0.2922988,-0.01725693,-0.05650499,0.39386004,-0.0074738716,-0.1336023,-3.91875,-5.1000004,-35.1375
1763129425313,-1.102493,7.1898336,5.2869415,0.049174614,-0.13026692,-0.04703659,0.39386004,-0.0074738716,-0.1336023,-3.91875,-5.1000004,-35.1375
1763129425315,-0.7830512,7.036693,6.0460644,0.049174614,-0.13026692,-0.04703659,0.39386004,-0.0074738716,-0.1336023,-3.91875,-5.1000004,-35.1375
1763129425320,-0.7830512,7.036693,6.0460644,0.049174614,-0.13026692,-0.04703659,0.3966546,-0.007824953,-0.13414633,-3.91875,-5.1000004,-35.1375
1763129425325,-0.7830512,7.036693,6.0460644,0.049174614,-0.13026692,-0.04703659,0.3972101,-0.008905525,-0.13514969,-3.91875,-5.1000004,-35.1375
1763129425326,-0.7830512,7.036693,6.0460644,0.049174614,-0.13026692,-0.04703659,0.3972101,-0.008905525,-0.13514969,-1.6500001,-1.8375001,-34.575
1763129425334,-0.7830512,7.036693,6.0460644,-0.27962336,0.03176497,-0.046273008,0.3972101,-0.008905525,-0.13514969,-1.6500001,-1.8375001,-34.575
1763129425335,-1.102493,6.89432,7.070193,-0.27962336,0.03176497,-0.046273008,0.3972101,-0.008905525,-0.13514969,-1.6500001,-1.8375001,-34.575
1763129425339,-1.102493,6.89432,7.070193,-0.27962336,0.03176497,-0.046273008,0.39470896,-0.008019569,-0.13540976,-1.6500001,-1.8375001,-34.575
1763129425339,-1.102493,6.89432,7.070193,-0.27962336,0.03176497,-0.046273008,0.39470896,-0.008019569,-0.13540976,-4.21875,-5.64375,-34.0125
1763129425356,-1.102493,6.89432,7.070193,-0.33735007,0.117744185,0.033444848,0.39470896,-0.008019569,-0.13540976,-4.21875,-5.64375,-34.0125
1763129425357,-1.5140585,6.655038,7.3112698,-0.33735007,0.117744185,0.033444848,0.39470896,-0.008019569,-0.13540976,-4.21875,-5.64375,-34.0125
1763129425358,-1.5140585,6.655038,7.3112698,-0.33735007,0.117744185,0.033444848,0.39470896,-0.008019569,-0.13540976,-2.79375,-2.7375002,-33.45
1763129425359,-1.5140585,6.655038,7.3112698,-0.33735007,0.117744185,0.033444848,0.39159277,-0.006534439,-0.13471922,-2.79375,-2.7375002,-33.45
1763129425378,-1.5140585,6.655038,7.3112698,-0.13255766,0.080176,0.08811724,0.39159277,-0.006534439,-0.13471922,-2.79375,-2.7375002,-33.45
1763129425379,-1.5140585,6.655038,7.3112698,-0.13255766,0.080176,0.08811724,0.39030817,-0.005874248,-0.13382246,-2.79375,-2.7375002,-33.45
1763129425380,-1.0540384,6.7848487,7.239485,-0.13255766,0.080176,0.08811724,0.39030817,-0.005874248,-0.13382246,-2.79375,-2.7375002,-33.45
1763129425381,-1.0540384,6.7848487,7.239485,-0.13255766,0.080176,0.08811724,0.39030817,-0.005874248,-0.13382246,-3.6000001,-3.0937502,-35.568752
1763129425400,-1.0540384,6.7848487,7.239485,-0.13255766,0.080176,0.08811724,0.38953626,-0.005701463,-0.13366427,-3.6000001,-3.0937502,-35.568752
1763129425401,-1.0540384,6.7848487,7.239485,-0.07238748,0.014508039,0.019547673,0.38953626,-0.005701463,-0.13366427,-3.6000001,-3.0937502,-35.568752
1763129425402,-1.0540384,6.7848487,7.239485,-0.07238748,0.014508039,0.019547673,0.38953626,-0.005701463,-0.13366427,-3.5812502,-3.24375,-34.3125
1763129425402,-0.88414794,7.2083783,6.270392,-0.07238748,0.014508039,0.019547673,0.38953626,-0.005701463,-0.13366427,-3.5812502,-3.24375,-34.3125
