timestamp,accX,accY,accZ,gyroX,gyroY,gyroZ,rotX,rotY,rotZ,magX,magY,magZ
1763129368803,-0.7304091,7.387242,6.227321,-0.09392046,-0.21273366,0.026267186,0.40745962,8.110583E-4,-0.055528775,-3.3187501,-3.3375,-33.600002
1763129368803,-0.7304091,7.387242,6.227321,-0.077121675,-0.27091852,0.02687805,0.40745962,8.110583E-4,-0.055528775,-3.3187501,-3.3375,-33.600002
1763129368803,-0.32183465,7.3974113,6.483353,-0.077121675,-0.27091852,0.02687805,0.40745962,8.110583E-4,-0.055528775,-3.3187501,-3.3375,-33.600002
1763129368817,-0.32183465,7.3974113,6.483353,-0.077121675,-0.27091852,0.02687805,0.40745962,8.110583E-4,-0.055528775,-3.5625002,-2.0812502,-31.575
1763129368823,-0.32183465,7.3974113,6.483353,-0.0754418,-0.26160285,-0.015424335,0.40745962,8.110583E-4,-0.055528775,-3.5625002,-2.0812502,-31.575
1763129368824,-0.32183465,7.3974113,6.483353,-0.0754418,-0.26160285,-0.015424335,0.40661716,-0.0015527676,-0.056657348,-3.5625002,-2.0812502,-31.575
1763129368824,-0.31764722,7.2819576,6.4558353,-0.0754418,-0.26160285,-0.015424335,0.40661716,-0.0015527676,-0.056657348,-3.5625002,-2.0812502,-31.575
1763129368839,-0.31764722,7.2819576,6.4558353,-0.0754418,-0.26160285,-0.015424335,0.40661716,-0.0015527676,-0.056657348,-4.8,-6.0937505,-33.318752
1763129368844,-0.31764722,7.2819576,6.4558353,-0.06383537,-0.26343542,-0.0129808765,0.40661716,-0.0015527676,-0.056657348,-4.8,-6.0937505,-33.318752
1763129368844,-0.31764722,7.2819576,6.4558353,-0.06383537,-0.26343542,-0.0129808765,0.405871,-0.0039462205,-0.05778346,-4.8,-6.0937505,-33.318752
1763129368845,-0.26141587,7.315457,6.2751775,-0.06383537,-0.26343542,-0.0129808765,0.405871,-0.0039462205,-0.05778346,-4.8,-6.0937505,-33.318752
1763129368858,-0.26141587,7.315457,6.2751775,-0.06383537,-0.26343542,-0.0129808765,0.405871,-0.0039462205,-0.05778346,-5.86875,-2.79375,-31.181252
1763129368866,-0.19740787,7.350751,5.9090757,-0.06383537,-0.26343542,-0.0129808765,0.405871,-0.0039462205,-0.05778346,-5.86875,-2.79375,-31.181252
1763129368867,-0.19740787,7.350751,5.9090757,-0.098654665,-0.31276277,-0.017715078,0.405871,-0.0039462205,-0.05778346,-5.86875,-2.79375,-31.181252
1763129368878,-0.19740787,7.350751,5.9090757,-0.098654665,-0.31276277,-0.017715078,0.405871,-0.0039462205,-0.05778346,-1.2750001,-2.7,-33.018753
1763129368879,-0.19740787,7.350751,5.9090757,-0.098654665,-0.31276277,-0.017715078,0.4048005,-0.0068145082,-0.05924789,-1.2750001,-2.7,-33.018753
1763129368886,-0.19740787,7.350751,5.9090757,-0.18188499,-0.39095345,-0.04886918,0.4048005,-0.0068145082,-0.05924789,-1.2750001,-2.7,-33.018753
1763129368887,-0.09272188,7.3812594,5.89771,-0.18188499,-0.39095345,-0.04886918,0.4048005,-0.0068145082,-0.05924789,-1.2750001,-2.7,-33.018753
1763129368897,-0.09272188,7.3812594,5.89771,-0.18188499,-0.39095345,-0.04886918,0.4029572,-0.010247789,-0.06133157,-1.2750001,-2.7,-33.018753
1763129368898,-0.09272188,7.3812594,5.89771,-0.18188499,-0.39095345,-0.04886918,0.4029572,-0.010247789,-0.06133157,-2.3812501,-1.7062501,-37.3875
1763129368907,-0.09272188,7.3812594,5.89771,-0.24709481,-0.44272426,-0.091477,0.4029572,-0.010247789,-0.06133157,-2.3812501,-1.7062501,-37.3875
1763129368908,-0.046660043,7.222735,6.168697,-0.24709481,-0.44272426,-0.091477,0.4029572,-0.010247789,-0.06133157,-2.3812501,-1.7062501,-37.3875
1763129368917,-0.046660043,7.222735,6.168697,-0.24709481,-0.44272426,-0.091477,0.40046817,-0.013962732,-0.064022474,-2.3812501,-1.7062501,-37.3875
1763129368918,-0.046660043,7.222735,6.168697,-0.24709481,-0.44272426,-0.091477,0.40046817,-0.013962732,-0.064022474,-5.26875,-4.6125,-34.912502
1763129368928,-0.046660043,7.222735,6.168697,-0.2922988,-0.4243983,-0.12812889,0.40046817,-0.013962732,-0.064022474,-5.26875,-4.6125,-34.912502
1763129368929,-0.084346995,7.16112,6.4797635,-0.2922988,-0.4243983,-0.12812889,0.40046817,-0.013962732,-0.064022474,-5.26875,-4.6125,-34.912502
1763129368940,-0.084346995,7.16112,6.4797635,-0.2922988,-0.4243983,-0.12812889,0.40046817,-0.013962732,-0.064022474,-2.8125,-2.2875001,-36.46875
1763129368949,-0.084346995,7.16112,6.4797635,-0.31902415,-0.3990474,-0.16187917,0.40046817,-0.013962732,-0.064022474,-2.8125,-2.2875001,-36.46875
1763129368950,-0.2536392,7.025327,6.693323,-0.31902415,-0.3990474,-0.16187917,0.40046817,-0.013962732,-0.064022474,-2.8125,-2.2875001,-36.46875
1763129368958,-0.2536392,7.025327,6.693323,-0.31902415,-0.3990474,-0.16187917,0.39806843,-0.01742846,-0.066566415,-2.8125,-2.2875001,-36.46875
1763129368959,-0.2536392,7.025327,6.693323,-0.31902415,-0.3990474,-0.16187917,0.39806843,-0.01742846,-0.066566415,-3.7500002,-2.9625,-35.49375
1763129368960,-0.2536392,7.025327,6.693323,-0.31902415,-0.3990474,-0.16187917,0.3950909,-0.020433605,-0.06956561,-3.7500002,-2.9625,-35.49375
1763129368970,-0.2536392,7.025327,6.693323,-0.28939718,-0.40973756,-0.15714496,0.3950909,-0.020433605,-0.06956561,-3.7500002,-2.9625,-35.49375
1763129368971,-0.2739782,6.966105,6.7411795,-0.28939718,-0.40973756,-0.15714496,0.3950909,-0.020433605,-0.06956561,-3.7500002,-2.9625,-35.49375
1763129368977,-0.2739782,6.966105,6.7411795,-0.28939718,-0.40973756,-0.15714496,0.3920839,-0.023409786,-0.07310889,-3.7500002,-2.9625,-35.49375
1763129368979,-0.2739782,6.966105,6.7411795,-0.28939718,-0.40973756,-0.15714496,0.3920839,-0.023409786,-0.07310889,-5.5875,-5.15625,-33.787502
1763129368991,-0.2739782,6.966105,6.7411795,-0.2623664,-0.46990773,-0.16355905,0.3920839,-0.023409786,-0.07310889,-5.5875,-5.15625,-33.787502
1763129368992,-0.10707881,7.023533,6.7034926,-0.2623664,-0.46990773,-0.16355905,0.3920839,-0.023409786,-0.07310889,-5.5875,-5.15625,-33.787502
1763129368997,-0.10707881,7.023533,6.7034926,-0.2623664,-0.46990773,-0.16355905,0.38924938,-0.026906457,-0.077097125,-5.5875,-5.15625,-33.787502
1763129368998,-0.10707881,7.023533,6.7034926,-0.2623664,-0.46990773,-0.16355905,0.38924938,-0.026906457,-0.077097125,-3.5062501,-2.11875,-35.643753
1763129369012,-0.10707881,7.023533,6.7034926,-0.31337363,-0.44516772,-0.20219624,0.38924938,-0.026906457,-0.077097125,-3.5062501,-2.11875,-35.643753
1763129369013,0.036490545,7.042675,7.0145597,-0.31337363,-0.44516772,-0.20219624,0.38924938,-0.026906457,-0.077097125,-3.5062501,-2.11875,-35.643753
1763129369018,0.036490545,7.042675,7.0145597,-0.31337363,-0.44516772,-0.20219624,0.38924938,-0.026906457,-0.077097125,-4.74375,-2.3812501,-34.425003
1763129369018,0.036490545,7.042675,7.0145597,-0.31337363,-0.44516772,-0.20219624,0.38613644,-0.030082332,-0.08099091,-4.74375,-2.3812501,-34.425003
1763129369033,0.036490545,7.042675,7.0145597,-0.38423395,-0.31902415,-0.23930627,0.38613644,-0.030082332,-0.08099091,-4.74375,-2.3812501,-34.425003
1763129369034,-0.06999006,6.8865438,7.2006016,-0.38423395,-0.31902415,-0.23930627,0.38613644,-0.030082332,-0.08099091,-4.74375,-2.3812501,-34.425003
1763129369038,-0.06999006,6.8865438,7.2006016,-0.38423395,-0.31902415,-0.23930627,0.38222495,-0.03194558,-0.08448078,-4.74375,-2.3812501,-34.425003
1763129369039,-0.06999006,6.8865438,7.2006016,-0.38423395,-0.31902415,-0.23930627,0.38222495,-0.03194558,-0.08448078,-6.0,-2.3812501,-36.018753
1763129369054,-0.06999006,6.8865438,7.2006016,-0.3735438,-0.23258677,-0.19654575,0.38222495,-0.03194558,-0.08448078,-6.0,-2.3812501,-36.018753
1763129369055,-0.36251262,6.626324,7.368697,-0.3735438,-0.23258677,-0.19654575,0.38222495,-0.03194558,-0.08448078,-6.0,-2.3812501,-36.018753
1763129369057,-0.36251262,6.626324,7.368697,-0.3735438,-0.23258677,-0.19654575,0.37821847,-0.033052932,-0.087538876,-6.0,-2.3812501,-36.018753
1763129369057,-0.36251262,6.626324,7.368697,-0.3735438,-0.23258677,-0.19654575,0.37821847,-0.033052932,-0.087538876,-5.86875,-2.6437502,-33.6375
1763129369075,-0.36251262,6.626324,7.368697,-0.26450446,-0.2403753,-0.10506874,0.37821847,-0.033052932,-0.087538876,-5.86875,-2.6437502,-33.6375
1763129369076,-0.26979074,6.6676,7.1946197,-0.26450446,-0.2403753,-0.10506874,0.37821847,-0.033052932,-0.087538876,-5.86875,-2.6437502,-33.6375
1763129369077,-0.26979074,6.6676,7.1946197,-0.26450446,-0.2403753,-0.10506874,0.3748583,-0.03441785,-0.090537764,-5.86875,-2.6437502,-33.6375
1763129369079,-0.26979074,6.6676,7.1946197,-0.26450446,-0.2403753,-0.10506874,0.3748583,-0.03441785,-0.090537764,-12.187501,-6.6375003,-28.837502
1763129369098,-0.26979074,6.6676,7.1946197,-0.2046397,-0.2838994,-0.09392046,0.3748583,-0.03441785,-0.090537764,-12.187501,-6.6375003,-28.837502
1763129369103,-0.26979074,6.6676,7.1946197,-0.2046397,-0.2838994,-0.09392046,0.3748583,-0.03441785,-0.090537764,-5.5125003,-1.6125001,-34.40625
1763129369104,-0.019142581,6.8404818,7.0779696,-0.2046397,-0.2838994,-0.09392046,0.3748583,-0.03441785,-0.090537764,-5.5125003,-1.6125001,-34.40625
1763129369118,-0.019142581,6.8404818,7.0779696,-0.2046397,-0.2838994,-0.09392046,0.37259534,-0.036566842,-0.09273815,-5.5125003,-1.6125001,-34.40625
1763129369120,0.14476576,6.8081784,7.1706915,-0.2046397,-0.2838994,-0.09392046,0.37259534,-0.036566842,-0.09273815,-5.5125003,-1.6125001,-34.40625
1763129369121,0.14476576,6.8081784,7.1706915,-0.20662501,-0.24480405,-0.1197295,0.37259534,-0.036566842,-0.09273815,-5.5125003,-1.6125001,-34.40625
1763129369122,0.14476576,6.8081784,7.1706915,-0.20662501,-0.24480405,-0.1197295,0.37041292,-0.03826497,-0.09493893,-5.5125003,-1.6125001,-34.40625
1763129369123,0.14476576,6.8081784,7.1706915,-0.20662501,-0.24480405,-0.1197295,0.37041292,-0.03826497,-0.09493893,-2.5875,0.0375,-34.893753
1763129369138,0.14476576,6.8081784,7.1706915,-0.20662501,-0.24480405,-0.1197295,0.36827064,-0.03923994,-0.09712724,-2.5875,0.0375,-34.893753
1763129369139,0.14476576,6.8081784,7.1706915,-0.20861033,-0.18035783,-0.14981459,0.36827064,-0.03923994,-0.09712724,-2.5875,0.0375,-34.893753
1763129369140,0.14476576,6.8081784,7.1706915,-0.20861033,-0.18035783,-0.14981459,0.36827064,-0.03923994,-0.09712724,-6.7125,-3.6562502,-34.36875
1763129369140,0.11365908,6.704689,7.2006016,-0.20861033,-0.18035783,-0.14981459,0.36827064,-0.03923994,-0.09712724,-6.7125,-3.6562502,-34.36875
1763129369157,0.11365908,6.704689,7.2006016,-0.20861033,-0.18035783,-0.14981459,0.36827064,-0.03923994,-0.09712724,-4.33125,0.73125005,-36.65625
1763129369159,0.11365908,6.704689,7.2006016,-0.2046397,-0.11682789,-0.13561198,0.36827064,-0.03923994,-0.09712724,-4.33125,0.73125005,-36.65625
1763129369160,0.11365908,6.704689,7.2006016,-0.2046397,-0.11682789,-0.13561198,0.36620924,-0.03965318,-0.09894394,-4.33125,0.73125005,-36.65625
1763129369161,-0.16749759,6.502496,7.172486,-0.2046397,-0.11682789,-0.13561198,0.36620924,-0.03965318,-0.09894394,-4.33125,0.73125005,-36.65625
1763129369177,-0.16749759,6.502496,7.172486,-0.2046397,-0.11682789,-0.13561198,0.36620924,-0.03965318,-0.09894394,-5.8875003,-0.88125,-34.706253
1763129369180,-0.16749759,6.502496,7.172486,-0.2046397,-0.11682789,-0.13561198,0.36435792,-0.040311582,-0.100053385,-5.8875003,-0.88125,-34.706253
1763129369181,-0.16749759,6.502496,7.172486,-0.17806709,-0.11133011,-0.05497783,0.36435792,-0.040311582,-0.100053385,-5.8875003,-0.88125,-34.706253
1763129369183,-0.148355,6.553343,7.1880393,-0.17806709,-0.11133011,-0.05497783,0.36435792,-0.040311582,-0.100053385,-5.8875003,-0.88125,-34.706253
1763129369198,-0.148355,6.553343,7.1880393,-0.17806709,-0.11133011,-0.05497783,0.36435792,-0.040311582,-0.100053385,-5.30625,-1.2375001,-35.8125
1763129369202,-0.148355,6.553343,7.1880393,-0.1517999,-0.116217025,-0.029626941,0.36435792,-0.040311582,-0.100053385,-5.30625,-1.2375001,-35.8125
1763129369203,-0.148355,6.553343,7.1880393,-0.1517999,-0.116217025,-0.029626941,0.36275667,-0.04114297,-0.10091702,-5.30625,-1.2375001,-35.8125
1763129369204,0.11365908,6.678966,7.2586274,-0.1517999,-0.116217025,-0.029626941,0.36275667,-0.04114297,-0.10091702,-5.30625,-1.2375001,-35.8125
1763129369218,0.11365908,6.678966,7.2586274,-0.1517999,-0.116217025,-0.029626941,0.36275667,-0.04114297,-0.10091702,-7.2562504,-2.6625001,-34.800003
1763129369222,0.11365908,6.678966,7.2586274,-0.120034926,-0.07666353,-0.060475614,0.36275667,-0.04114297,-0.10091702,-7.2562504,-2.6625001,-34.800003
1763129369223,0.11365908,6.678966,7.2586274,-0.120034926,-0.07666353,-0.060475614,0.36153072,-0.041542076,-0.10181978,-7.2562504,-2.6625001,-34.800003
1763129369224,0.13758731,6.6245294,7.2263246,-0.120034926,-0.07666353,-0.060475614,0.36153072,-0.041542076,-0.10181978,-7.2562504,-2.6625001,-34.800003
1763129369239,0.13758731,6.6245294,7.2263246,-0.120034926,-0.07666353,-0.060475614,0.36153072,-0.041542076,-0.10181978,-5.3250003,-0.43125,-33.9
1763129369243,0.13758731,6.6245294,7.2263246,-0.09071342,-0.07055488,-0.083383046,0.36153072,-0.041542076,-0.10181978,-5.3250003,-0.43125,-33.9
1763129369244,0.0077766734,6.5718875,7.146165,-0.09071342,-0.07055488,-0.083383046,0.36153072,-0.041542076,-0.10181978,-5.3250003,-0.43125,-33.9
1763129369245,0.0077766734,6.5718875,7.146165,-0.09071342,-0.07055488,-0.083383046,0.36060515,-0.041829374,-0.10290086,-5.3250003,-0.43125,-33.9
1763129369257,0.0077766734,6.5718875,7.146165,-0.09071342,-0.07055488,-0.083383046,0.36060515,-0.041829374,-0.10290086,-7.275,-3.3000002,-34.93125
1763129369265,-0.05383851,6.5407805,7.0193453,-0.09071342,-0.07055488,-0.083383046,0.36060515,-0.041829374,-0.10290086,-7.275,-3.3000002,-34.93125
1763129369266,-0.05383851,6.5407805,7.0193453,-0.09315688,-0.080176,-0.08796453,0.36060515,-0.041829374,-0.10290086,-7.275,-3.3000002,-34.93125
1763129369267,-0.05383851,6.5407805,7.0193453,-0.09315688,-0.080176,-0.08796453,0.35965702,-0.042171095,-0.10410704,-7.275,-3.3000002,-34.93125
1763129369278,-0.05383851,6.5407805,7.0193453,-0.09315688,-0.080176,-0.08796453,0.35965702,-0.042171095,-0.10410704,-6.1687503,-1.44375,-35.4
1763129369285,-0.05383851,6.5407805,7.0193453,-0.14019346,-0.10109812,-0.07269291,0.35965702,-0.042171095,-0.10410704,-6.1687503,-1.44375,-35.4
1763129369286,-0.055633128,6.5611196,7.0079794,-0.14019346,-0.10109812,-0.07269291,0.35965702,-0.042171095,-0.10410704,-6.1687503,-1.44375,-35.4
1763129369298,-0.055633128,6.5611196,7.0079794,-0.14019346,-0.10109812,-0.07269291,0.35824466,-0.042714924,-0.10527997,-6.1687503,-1.44375,-35.4
1763129369299,-0.055633128,6.5611196,7.0079794,-0.14019346,-0.10109812,-0.07269291,0.35824466,-0.042714924,-0.10527997,-4.78125,0.16875,-34.96875
1763129369307,-0.055633128,6.5611196,7.0079794,-0.1782198,-0.12415826,-0.051618073,0.35824466,-0.042714924,-0.10527997,-4.78125,0.16875,-34.96875
1763129369308,0.054436713,6.613762,7.222735,-0.1782198,-0.12415826,-0.051618073,0.35824466,-0.042714924,-0.10527997,-4.78125,0.16875,-34.96875
1763129369317,0.054436713,6.613762,7.222735,-0.1782198,-0.12415826,-0.051618073,0.35643923,-0.043517195,-0.106351785,-4.78125,0.16875,-34.96875
1763129369317,0.054436713,6.613762,7.222735,-0.1782198,-0.12415826,-0.051618073,0.35643923,-0.043517195,-0.106351785,-7.9125004,-1.8375001,-33.84375
1763129369326,0.054436713,6.613762,7.222735,-0.18356487,-0.08811724,-0.06383537,0.35643923,-0.043517195,-0.106351785,-7.9125004,-1.8375001,-33.84375
1763129369327,0.19441684,6.634699,7.425527,-0.18356487,-0.08811724,-0.06383537,0.35643923,-0.043517195,-0.106351785,-7.9125004,-1.8375001,-33.84375
1763129369338,0.19441684,6.634699,7.425527,-0.18356487,-0.08811724,-0.06383537,0.35643923,-0.043517195,-0.106351785,-6.7875004,-0.93750006,-33.600002
1763129369348,0.19441684,6.634699,7.425527,-0.15302163,-0.06520981,-0.08872811,0.35643923,-0.043517195,-0.106351785,-6.7875004,-0.93750006,-33.600002
1763129369349,0.15672988,6.6167526,7.569096,-0.15302163,-0.06520981,-0.08872811,0.35643923,-0.043517195,-0.106351785,-6.7875004,-0.93750006,-33.600002
1763129369358,0.15672988,6.6167526,7.569096,-0.15302163,-0.06520981,-0.08872811,0.35475048,-0.04393687,-0.107332535,-6.7875004,-0.93750006,-33.600002
1763129369358,0.15672988,6.6167526,7.569096,-0.15302163,-0.06520981,-0.08872811,0.35323298,-0.044203795,-0.10817345,-6.7875004,-0.93750006,-33.600002
1763129369359,0.15672988,6.6167526,7.569096,-0.15302163,-0.06520981,-0.08872811,0.35323298,-0.044203795,-0.10817345,-9.0,-3.0375001,-33.393753
1763129369369,0.15672988,6.6167526,7.569096,-0.09498947,-0.044134982,-0.10415245,0.35323298,-0.044203795,-0.10817345,-9.0,-3.0375001,-33.393753
1763129369369,0.062213387,6.4761744,7.468598,-0.09498947,-0.044134982,-0.10415245,0.35323298,-0.044203795,-0.10817345,-9.0,-3.0375001,-33.393753
1763129369378,0.062213387,6.4761744,7.468598,-0.09498947,-0.044134982,-0.10415245,0.35217193,-0.044239495,-0.10918351,-9.0,-3.0375001,-33.393753
1763129369378,0.062213387,6.4761744,7.468598,-0.09498947,-0.044134982,-0.10415245,0.35217193,-0.044239495,-0.10918351,-8.493751,-2.2875001,-33.28125
1763129369390,0.062213387,6.4761744,7.468598,-0.045509428,-0.056199558,-0.101250835,0.35217193,-0.044239495,-0.10918351,-8.493751,-2.2875001,-33.28125
1763129369391,-0.0077766734,6.500701,7.342376,-0.045509428,-0.056199558,-0.101250835,0.35217193,-0.044239495,-0.10918351,-8.493751,-2.2875001,-33.28125
1763129369398,-0.0077766734,6.500701,7.342376,-0.045509428,-0.056199558,-0.101250835,0.35154346,-0.044371717,-0.11041226,-8.493751,-2.2875001,-33.28125
1763129369399,-0.0077766734,6.500701,7.342376,-0.045509428,-0.056199558,-0.101250835,0.35154346,-0.044371717,-0.11041226,-8.08125,-2.3625002,-34.050003
1763129369411,-0.0077766734,6.500701,7.342376,-0.016798781,-0.0810923,-0.12095123,0.35154346,-0.044371717,-0.11041226,-8.08125,-2.3625002,-34.050003
1763129369412,0.08793623,6.519245,7.1485577,-0.016798781,-0.0810923,-0.12095123,0.35154346,-0.044371717,-0.11041226,-8.08125,-2.3625002,-34.050003
1763129369417,0.08793623,6.519245,7.1485577,-0.016798781,-0.0810923,-0.12095123,0.3513582,-0.044648953,-0.112011515,-8.08125,-2.3625002,-34.050003
1763129369418,0.08793623,6.519245,7.1485577,-0.016798781,-0.0810923,-0.12095123,0.3513582,-0.044648953,-0.112011515,-5.9437504,-0.73125005,-32.643753
1763129369432,0.08793623,6.519245,7.1485577,-0.032833982,-0.098654665,-0.15256348,0.3513582,-0.044648953,-0.112011515,-5.9437504,-0.73125005,-32.643753
1763129369433,0.054436713,6.468996,7.1431737,-0.032833982,-0.098654665,-0.15256348,0.3513582,-0.044648953,-0.112011515,-5.9437504,-0.73125005,-32.643753
1763129369438,0.054436713,6.468996,7.1431737,-0.032833982,-0.098654665,-0.15256348,0.35123473,-0.045064937,-0.11367863,-5.9437504,-0.73125005,-32.643753
1763129369439,0.054436713,6.468996,7.1431737,-0.032833982,-0.098654665,-0.15256348,0.35123473,-0.045064937,-0.11367863,-7.4062505,-1.06875,-33.0
1763129369453,0.054436713,6.468996,7.1431737,-0.07024945,-0.102778,-0.13469568,0.35123473,-0.045064937,-0.11367863,-7.4062505,-1.06875,-33.0
1763129369454,-0.008374879,6.4366927,7.2532434,-0.07024945,-0.102778,-0.13469568,0.35123473,-0.045064937,-0.11367863,-7.4062505,-1.06875,-33.0
1763129369459,-0.008374879,6.4366927,7.2532434,-0.07024945,-0.102778,-0.13469568,0.35069707,-0.045510348,-0.11529118,-7.4062505,-1.06875,-33.0
1763129369460,-0.008374879,6.4366927,7.2532434,-0.07024945,-0.102778,-0.13469568,0.35069707,-0.045510348,-0.11529118,-6.0750003,-0.45000002,-34.725002
1763129369474,-0.008374879,6.4366927,7.2532434,-0.09422589,-0.093309596,-0.109344795,0.35069707,-0.045510348,-0.11529118,-6.0750003,-0.45000002,-34.725002
1763129369475,0.0017946169,6.4462643,7.454241,-0.09422589,-0.093309596,-0.109344795,0.35069707,-0.045510348,-0.11529118,-6.0750003,-0.45000002,-34.725002
1763129369477,0.0017946169,6.4462643,7.454241,-0.09422589,-0.093309596,-0.109344795,0.34979948,-0.04586381,-0.11681931,-6.0750003,-0.45000002,-34.725002
1763129369478,0.0017946169,6.4462643,7.454241,-0.09422589,-0.093309596,-0.109344795,0.34979948,-0.04586381,-0.11681931,-7.5937505,-1.29375,-35.100002
1763129369495,0.0017946169,6.4462643,7.454241,-0.109344795,-0.066431545,-0.1036943,0.34979948,-0.04586381,-0.11681931,-7.5937505,-1.29375,-35.100002
1763129369496,-0.049052864,6.45763,7.446464,-0.109344795,-0.066431545,-0.1036943,0.34979948,-0.04586381,-0.11681931,-7.5937505,-1.29375,-35.100002
1763129369498,-0.049052864,6.45763,7.446464,-0.109344795,-0.066431545,-0.1036943,0.3486136,-0.04596751,-0.11821937,-7.5937505,-1.29375,-35.100002
1763129369499,-0.049052864,6.45763,7.446464,-0.109344795,-0.066431545,-0.1036943,0.3486136,-0.04596751,-0.11821937,-8.4375,-2.4375,-34.443752
1763129369518,-0.049052864,6.45763,7.446464,-0.109344795,-0.066431545,-0.1036943,0.34774518,-0.046310112,-0.119678184,-8.4375,-2.4375,-34.443752
1763129369519,-0.049052864,6.45763,7.446464,-0.07925971,-0.08796453,-0.092851445,0.34774518,-0.046310112,-0.119678184,-8.4375,-2.4375,-34.443752
1763129369523,-0.08255238,6.407979,7.495517,-0.07925971,-0.08796453,-0.092851445,0.34774518,-0.046310112,-0.119678184,-8.4375,-2.4375,-34.443752
1763129369524,-0.08255238,6.407979,7.495517,-0.07925971,-0.08796453,-0.092851445,0.34774518,-0.046310112,-0.119678184,-6.95625,-0.65625,-34.48125
1763129369538,-0.08255238,6.407979,7.495517,-0.07925971,-0.08796453,-0.092851445,0.3473372,-0.046953063,-0.12109202,-6.95625,-0.65625,-34.48125
1763129369539,-0.08255238,6.407979,7.495517,-0.018173227,-0.107054055,-0.07192933,0.3473372,-0.046953063,-0.12109202,-6.95625,-0.65625,-34.48125
1763129369540,0.08793623,6.2991056,7.6570325,-0.018173227,-0.107054055,-0.07192933,0.3473372,-0.046953063,-0.12109202,-6.95625,-0.65625,-34.48125
1763129369541,0.08793623,6.2991056,7.6570325,-0.018173227,-0.107054055,-0.07192933,0.3473372,-0.046953063,-0.12109202,-7.6687503,-1.9312501,-32.23125
1763129369558,0.15433706,6.294918,7.582257,-0.018173227,-0.107054055,-0.07192933,0.3473372,-0.046953063,-0.12109202,-7.6687503,-1.9312501,-32.23125
1763129369559,0.15433706,6.294918,7.582257,-0.018173227,-0.107054055,-0.07192933,0.34719983,-0.04725263,-0.12194583,-7.6687503,-1.9312501,-32.23125
1763129369561,0.15433706,6.294918,7.582257,0.03604102,-0.047647454,-0.07024945,0.34719983,-0.04725263,-0.12194583,-7.6687503,-1.9312501,-32.23125
1763129369562,0.15433706,6.294918,7.582257,0.03604102,-0.047647454,-0.07024945,0.34719983,-0.04725263,-0.12194583,-7.1250005,-1.1625,-33.487503
1763129369577,0.15433706,6.294918,7.582257,0.03604102,-0.047647454,-0.07024945,0.34719983,-0.04725263,-0.12194583,-7.9500003,-3.1312501,-34.575
1763129369579,0.15433706,6.294918,7.582257,0.03604102,-0.047647454,-0.07024945,0.34726757,-0.047028743,-0.122454636,-7.9500003,-3.1312501,-34.575
1763129369579,0.15433706,6.294918,7.582257,0.04214967,0.011759147,-0.07773254,0.34726757,-0.047028743,-0.122454636,-7.9500003,-3.1312501,-34.575
1763129369580,-0.08973085,6.2291155,7.2323065,0.04214967,0.011759147,-0.07773254,0.34726757,-0.047028743,-0.122454636,-7.9500003,-3.1312501,-34.575
1763129369597,-0.08973085,6.2291155,7.2323065,0.04214967,0.011759147,-0.07773254,0.34726757,-0.047028743,-0.122454636,-7.2937503,-0.09375,-34.125
1763129369600,-0.21535404,6.19083,7.1192455,0.04214967,0.011759147,-0.07773254,0.34726757,-0.047028743,-0.122454636,-7.2937503,-0.09375,-34.125
1763129369601,-0.21535404,6.19083,7.1192455,0.04214967,0.011759147,-0.07773254,0.34736127,-0.046754487,-0.12309997,-7.2937503,-0.09375,-34.125
1763129369602,-0.21535404,6.19083,7.1192455,0.0140498895,0.004123337,-0.04092794,0.34736127,-0.046754487,-0.12309997,-7.2937503,-0.09375,-34.125
1763129369618,-0.21535404,6.19083,7.1192455,0.0140498895,0.004123337,-0.04092794,0.34736127,-0.046754487,-0.12309997,-7.33125,-1.3875,-34.40625
1763129369623,-0.21535404,6.19083,7.1192455,0.013286309,-0.015577052,0.017715078,0.34736127,-0.046754487,-0.12309997,-7.33125,-1.3875,-34.40625
1763129369624,-0.21535404,6.19083,7.1192455,0.013286309,-0.015577052,0.017715078,0.3474805,-0.046767294,-0.12351239,-7.33125,-1.3875,-34.40625
1763129369626,-0.08973085,6.259624,7.203593,0.013286309,-0.015577052,0.017715078,0.3474805,-0.046767294,-0.12351239,-7.33125,-1.3875,-34.40625
1763129369640,-0.08973085,6.259624,7.203593,0.013286309,-0.015577052,0.017715078,0.3474805,-0.046767294,-0.12351239,-6.5062504,-1.03125,-33.6375
1763129369643,-0.08973085,6.259624,7.203593,0.053603385,3.054324E-4,0.02687805,0.3474805,-0.046767294,-0.12351239,-6.5062504,-1.03125,-33.6375
1763129369644,-0.08973085,6.259624,7.203593,0.053603385,3.054324E-4,0.02687805,0.34797013,-0.046833225,-0.12347059,-6.5062504,-1.03125,-33.6375
1763129369648,0.07537391,6.376274,7.396813,0.053603385,3.054324E-4,0.02687805,0.34797013,-0.046833225,-0.12347059,-6.5062504,-1.03125,-33.6375
1763129369657,0.07537391,6.376274,7.396813,0.053603385,3.054324E-4,0.02687805,0.34797013,-0.046833225,-0.12347059,-8.925,-2.5500002,-34.55625
1763129369664,0.07537391,6.376274,7.396813,0.11209369,0.057268575,0.0048869182,0.34797013,-0.046833225,-0.12347059,-8.925,-2.5500002,-34.55625
1763129369665,0.07537391,6.376274,7.396813,0.11209369,0.057268575,0.0048869182,0.34899163,-0.046505753,-0.12303383,-8.925,-2.5500002,-34.55625
1763129369667,0.06999006,6.3541408,7.2179494,0.11209369,0.057268575,0.0048869182,0.34899163,-0.046505753,-0.12303383,-8.925,-2.5500002,-34.55625
1763129369677,0.06999006,6.3541408,7.2179494,0.11209369,0.057268575,0.0048869182,0.34899163,-0.046505753,-0.12303383,-6.7875004,-1.5937501,-35.550003
1763129369684,0.06999006,6.3541408,7.2179494,0.11209369,0.057268575,0.0048869182,0.35009173,-0.04620354,-0.12255667,-6.7875004,-1.5937501,-35.550003
1763129369685,-0.038285162,6.452246,6.957132,0.11209369,0.057268575,0.0048869182,0.35009173,-0.04620354,-0.12255667,-6.7875004,-1.5937501,-35.550003
1763129369685,-0.038285162,6.452246,6.957132,0.10690133,0.054519683,0.0058032153,0.35009173,-0.04620354,-0.12255667,-6.7875004,-1.5937501,-35.550003
1763129369698,-0.038285162,6.452246,6.957132,0.10690133,0.054519683,0.0058032153,0.35009173,-0.04620354,-0.12255667,-8.4375,-1.6500001,-35.41875
1763129369706,-0.038285162,6.452246,6.957132,0.059712034,0.017867794,0.011453714,0.35009173,-0.04620354,-0.12255667,-8.4375,-1.6500001,-35.41875
1763129369707,-0.0029910284,6.541977,6.876972,0.059712034,0.017867794,0.011453714,0.35009173,-0.04620354,-0.12255667,-8.4375,-1.6500001,-35.41875
1763129369718,-0.0029910284,6.541977,6.876972,0.059712034,0.017867794,0.011453714,0.35104606,-0.046320464,-0.12283022,-8.4375,-1.6500001,-35.41875
1763129369720,-0.0029910284,6.541977,6.876972,0.059712034,0.017867794,0.011453714,0.35104606,-0.046320464,-0.12283022,-6.7500005,-1.0875001,-34.912502
1763129369726,-0.0029910284,6.541977,6.876972,-0.0042760535,0.007177661,0.004581486,0.35104606,-0.046320464,-0.12283022,-6.7500005,-1.0875001,-34.912502
1763129369727,0.020937199,6.4642105,6.983453,-0.0042760535,0.007177661,0.004581486,0.35104606,-0.046320464,-0.12283022,-6.7500005,-1.0875001,-34.912502
1763129369739,0.020937199,6.4642105,6.983453,-0.0042760535,0.007177661,0.004581486,0.35156944,-0.046295375,-0.1226227,-6.7500005,-1.0875001,-34.912502
1763129369740,0.020937199,6.4642105,6.983453,-0.0042760535,0.007177661,0.004581486,0.35156944,-0.046295375,-0.1226227,-8.512501,-1.9875001,-34.74375
1763129369747,0.020937199,6.4642105,6.983453,-0.06139191,0.011759147,0.013591741,0.35156944,-0.046295375,-0.1226227,-8.512501,-1.9875001,-34.74375
1763129369748,0.0059820567,6.468996,7.164111,-0.06139191,0.011759147,0.013591741,0.35156944,-0.046295375,-0.1226227,-8.512501,-1.9875001,-34.74375
1763129369757,0.0059820567,6.468996,7.164111,-0.06139191,0.011759147,0.013591741,0.35132408,-0.046246164,-0.12246595,-8.512501,-1.9875001,-34.74375
1763129369758,0.0059820567,6.468996,7.164111,-0.06139191,0.011759147,0.013591741,0.35132408,-0.046246164,-0.12246595,-8.38125,-2.90625,-33.54375
1763129369768,0.010767702,6.4402823,7.38784,-0.06139191,0.011759147,0.013591741,0.35132408,-0.046246164,-0.12246595,-8.38125,-2.90625,-33.54375
1763129369769,0.010767702,6.4402823,7.38784,-0.058337588,0.00641408,0.020158539,0.35132408,-0.046246164,-0.12246595,-8.38125,-2.90625,-33.54375
1763129369777,0.010767702,6.4402823,7.38784,-0.058337588,0.00641408,0.020158539,0.350929,-0.046200734,-0.12221644,-8.38125,-2.90625,-33.54375
1763129369778,0.010767702,6.4402823,7.38784,-0.058337588,0.00641408,0.020158539,0.350929,-0.046200734,-0.12221644,-7.9500003,-3.1312501,-34.575
1763129369789,0.010767702,6.4402823,7.38784,-0.031917684,0.021532983,0.016035201,0.350929,-0.046200734,-0.12221644,-7.9500003,-3.1312501,-34.575
1763129369790,0.01794617,6.4271216,7.5296144,-0.031917684,0.021532983,0.016035201,0.350929,-0.046200734,-0.12221644,-7.9500003,-3.1312501,-34.575
1763129369798,0.01794617,6.4271216,7.5296144,-0.031917684,0.021532983,0.016035201,0.35053593,-0.046072833,-0.122139685,-7.9500003,-3.1312501,-34.575
1763129369799,0.01794617,6.4271216,7.5296144,-0.031917684,0.021532983,0.016035201,0.35053593,-0.046072833,-0.122139685,-5.71875,-0.35625002,-33.9
1763129369810,0.01794617,6.4271216,7.5296144,-0.023365578,0.047952887,0.017104214,0.35053593,-0.046072833,-0.122139685,-5.71875,-0.35625002,-33.9
1763129369811,-0.0017946169,6.4618177,7.41117,-0.023365578,0.047952887,0.017104214,0.35053593,-0.046072833,-0.122139685,-5.71875,-0.35625002,-33.9
1763129369817,-0.0017946169,6.4618177,7.41117,-0.023365578,0.047952887,0.017104214,0.35009718,-0.045744963,-0.12206639,-5.71875,-0.35625002,-33.9
1763129369819,-0.0017946169,6.4618177,7.41117,-0.023365578,0.047952887,0.017104214,0.35009718,-0.045744963,-0.12206639,-6.5625005,-0.5625,-35.1375
1763129369831,-0.0017946169,6.4618177,7.41117,-0.029016078,0.042760536,0.013591741,0.35009718,-0.045744963,-0.12206639,-6.5625005,-0.5625,-35.1375
1763129369832,0.008374879,6.544968,7.436893,-0.029016078,0.042760536,0.013591741,0.35009718,-0.045744963,-0.12206639,-6.5625005,-0.5625,-35.1375
1763129369839,0.008374879,6.544968,7.436893,-0.029016078,0.042760536,0.013591741,0.34979466,-0.04537786,-0.12186966,-6.5625005,-0.5625,-35.1375
1763129369840,0.008374879,6.544968,7.436893,-0.029016078,0.042760536,0.013591741,0.34979466,-0.04537786,-0.12186966,-7.4625,-2.2125,-34.66875
1763129369852,0.008374879,6.544968,7.436893,-0.015729768,0.042302385,-0.008857539,0.34979466,-0.04537786,-0.12186966,-7.4625,-2.2125,-34.66875
1763129369852,0.06520442,6.546763,7.442875,-0.015729768,0.042302385,-0.008857539,0.34979466,-0.04537786,-0.12186966,-7.4625,-2.2125,-34.66875
1763129369857,0.06520442,6.546763,7.442875,-0.015729768,0.042302385,-0.008857539,0.3497042,-0.045007437,-0.12192139,-7.4625,-2.2125,-34.66875
1763129369858,0.06520442,6.546763,7.442875,-0.015729768,0.042302385,-0.008857539,0.3497042,-0.045007437,-0.12192139,-7.2000003,-2.15625,-34.912502
1763129369872,0.06520442,6.546763,7.442875,-0.00962112,0.04016436,-0.018325943,0.3497042,-0.045007437,-0.12192139,-7.2000003,-2.15625,-34.912502
1763129369874,-0.032303106,6.445068,7.4656067,-0.00962112,0.04016436,-0.018325943,0.3497042,-0.045007437,-0.12192139,-7.2000003,-2.15625,-34.912502
1763129369878,-0.032303106,6.445068,7.4656067,-0.00962112,0.04016436,-0.018325943,0.3496694,-0.044663414,-0.12184733,-7.2000003,-2.15625,-34.912502
1763129369879,-0.032303106,6.445068,7.4656067,-0.00962112,0.04016436,-0.018325943,0.3496694,-0.044663414,-0.12184733,-7.05,-1.63125,-34.40625
1763129369894,-0.032303106,6.445068,7.4656067,0.010384701,0.050090913,0.009010255,0.3496694,-0.044663414,-0.12184733,-7.05,-1.63125,-34.40625
1763129369895,0.009571291,6.4683976,7.5086775,0.010384701,0.050090913,0.009010255,0.3496694,-0.044663414,-0.12184733,-7.05,-1.63125,-34.40625
1763129369899,0.009571291,6.4683976,7.5086775,0.010384701,0.050090913,0.009010255,0.34968665,-0.044285003,-0.12180625,-7.05,-1.63125,-34.40625
1763129369900,0.009571291,6.4683976,7.5086775,0.010384701,0.050090913,0.009010255,0.34968665,-0.044285003,-0.12180625,-7.74375,-2.775,-34.912502
1763129369915,0.009571291,6.4683976,7.5086775,0.031154104,0.07895427,0.011148282,0.34968665,-0.044285003,-0.12180625,-7.74375,-2.775,-34.912502
1763129369916,0.12562318,6.546763,7.457232,0.031154104,0.07895427,0.011148282,0.34968665,-0.044285003,-0.12180625,-7.74375,-2.775,-34.912502
1763129369918,0.12562318,6.546763,7.457232,0.031154104,0.07895427,0.011148282,0.34991604,-0.043674618,-0.12141953,-7.74375,-2.775,-34.912502
1763129369920,0.12562318,6.546763,7.457232,0.031154104,0.07895427,0.011148282,0.34991604,-0.043674618,-0.12141953,-7.275,-2.6437502,-33.75
1763129369936,0.12562318,6.546763,7.457232,0.044134982,0.10308343,-0.016951498,0.34991604,-0.043674618,-0.12141953,-7.275,-2.6437502,-33.75
1763129369937,0.076570325,6.562316,7.185048,0.044134982,0.10308343,-0.016951498,0.34991604,-0.043674618,-0.12141953,-7.275,-2.6437502,-33.75
1763129369938,0.076570325,6.562316,7.185048,0.044134982,0.10308343,-0.016951498,0.3504377,-0.04287693,-0.12087894,-7.275,-2.6437502,-33.75
1763129369939,0.076570325,6.562316,7.185048,0.044134982,0.10308343,-0.016951498,0.3504377,-0.04287693,-0.12087894,-6.5062504,-1.03125,-34.10625
1763129369958,0.076570325,6.562316,7.185048,0.044134982,0.10308343,-0.016951498,0.35119873,-0.04216237,-0.12056386,-6.5062504,-1.03125,-34.10625
1763129369959,0.076570325,6.562316,7.185048,0.044134982,0.10308343,-0.016951498,0.35119873,-0.04216237,-0.12056386,-5.45625,-0.31875002,-34.893753
1763129369961,0.076570325,6.562316,7.185048,0.03970621,0.08048143,-0.03848448,0.35119873,-0.04216237,-0.12056386,-5.45625,-0.31875002,-34.893753
1763129369962,-0.062213387,6.430711,7.042675,0.03970621,0.08048143,-0.03848448,0.35119873,-0.04216237,-0.12056386,-5.45625,-0.31875002,-34.893753
1763129369978,-0.062213387,6.430711,7.042675,0.03970621,0.08048143,-0.03848448,0.35193986,-0.04160321,-0.12087546,-5.45625,-0.31875002,-34.893753
1763129369979,-0.062213387,6.430711,7.042675,0.042607818,0.058490302,-0.042302385,0.35193986,-0.04160321,-0.12087546,-5.45625,-0.31875002,-34.893753
1763129369981,-0.18065812,6.3009005,7.025327,0.042607818,0.058490302,-0.042302385,0.35193986,-0.04160321,-0.12087546,-5.45625,-0.31875002,-34.893753
1763129369982,-0.18065812,6.3009005,7.025327,0.042607818,0.058490302,-0.042302385,0.35193986,-0.04160321,-0.12087546,-6.1312504,-1.5937501,-35.5125
1763129369997,-0.18065812,6.3009005,7.025327,0.042607818,0.058490302,-0.042302385,0.35193986,-0.04160321,-0.12087546,-5.7000003,-0.375,-35.25
1763129369999,-0.18065812,6.3009005,7.025327,0.021074835,0.07131846,-0.036651887,0.35193986,-0.04160321,-0.12087546,-5.7000003,-0.375,-35.25
1763129370000,-0.18065812,6.3009005,7.025327,0.021074835,0.07131846,-0.036651887,0.3523546,-0.040735874,-0.121189125,-5.7000003,-0.375,-35.25
1763129370001,-0.32183465,6.209973,6.942775,0.021074835,0.07131846,-0.036651887,0.3523546,-0.040735874,-0.121189125,-5.7000003,-0.375,-35.25
1763129370017,-0.32183465,6.209973,6.942775,0.021074835,0.07131846,-0.036651887,0.3523546,-0.040735874,-0.121189125,-5.7000003,-0.675,-32.5875
1763129370020,-0.32183465,6.209973,6.942775,-0.012522728,0.046731155,-0.021838415,0.3523546,-0.040735874,-0.121189125,-5.7000003,-0.675,-32.5875
1763129370022,-0.3290131,6.3044896,6.821339,-0.012522728,0.046731155,-0.021838415,0.3523546,-0.040735874,-0.121189125,-5.7000003,-0.675,-32.5875
1763129370023,-0.3290131,6.3044896,6.821339,-0.012522728,0.046731155,-0.021838415,0.3523938,-0.040047504,-0.12189727,-5.7000003,-0.675,-32.5875
1763129370039,-0.3290131,6.3044896,6.821339,-0.012522728,0.046731155,-0.021838415,0.3523938,-0.040047504,-0.12189727,-5.4187503,-2.23125,-34.36875
1763129370041,-0.3290131,6.3044896,6.821339,-0.049174614,0.0073303776,-0.026267186,0.3523938,-0.040047504,-0.12189727,-5.4187503,-2.23125,-34.36875
1763129370043,-0.3290131,6.3044896,6.821339,-0.049174614,0.0073303776,-0.026267186,0.35229126,-0.039636362,-0.122583196,-5.4187503,-2.23125,-34.36875
1763129370044,-0.39900318,6.1944194,6.7878394,-0.049174614,0.0073303776,-0.026267186,0.35229126,-0.039636362,-0.122583196,-5.4187503,-2.23125,-34.36875
1763129370058,-0.39900318,6.1944194,6.7878394,-0.049174614,0.0073303776,-0.026267186,0.35229126,-0.039636362,-0.122583196,-7.05,-1.63125,-34.40625
1763129370062,-0.39900318,6.1944194,6.7878394,-0.049174614,0.0073303776,-0.026267186,0.35152674,-0.039563734,-0.12336402,-7.05,-1.63125,-34.40625
1763129370063,-0.39900318,6.1944194,6.7878394,-0.10445788,-0.021532983,0.011606431,0.35152674,-0.039563734,-0.12336402,-7.05,-1.63125,-34.40625
1763129370064,-0.47078785,6.1435723,7.025327,-0.10445788,-0.021532983,0.011606431,0.35152674,-0.039563734,-0.12336402,-7.05,-1.63125,-34.40625
1763129370077,-0.47078785,6.1435723,7.025327,-0.10445788,-0.021532983,0.011606431,0.35152674,-0.039563734,-0.12336402,-6.0937505,-1.10625,-35.175003
1763129370083,-0.47078785,6.1435723,7.025327,-0.116675176,-0.021227552,0.066126116,0.35152674,-0.039563734,-0.12336402,-6.0937505,-1.10625,-35.175003
1763129370084,-0.47078785,6.1435723,7.025327,-0.116675176,-0.021227552,0.066126116,0.35034293,-0.03960416,-0.12390182,-6.0937505,-1.10625,-35.175003
1763129370085,-0.29491538,6.1938214,7.3728848,-0.116675176,-0.021227552,0.066126116,0.35034293,-0.03960416,-0.12390182,-6.0937505,-1.10625,-35.175003
1763129370097,-0.29491538,6.1938214,7.3728848,-0.116675176,-0.021227552,0.066126116,0.35034293,-0.03960416,-0.12390182,-6.2625003,-0.16875,-34.55625
1763129370104,-0.29491538,6.1938214,7.3728848,-0.116675176,-0.021227552,0.066126116,0.34927768,-0.03975709,-0.12397463,-6.2625003,-0.16875,-34.55625
1763129370108,-0.29491538,6.1938214,7.3728848,-0.07422007,-0.010231985,0.07055488,0.34927768,-0.03975709,-0.12397463,-6.2625003,-0.16875,-34.55625
1763129370109,-0.089132644,6.3828545,7.483553,-0.07422007,-0.010231985,0.07055488,0.34927768,-0.03975709,-0.12397463,-6.2625003,-0.16875,-34.55625
1763129370117,-0.089132644,6.3828545,7.483553,-0.07422007,-0.010231985,0.07055488,0.34927768,-0.03975709,-0.12397463,-7.7250004,-2.775,-35.9625
1763129370124,-0.089132644,6.3828545,7.483553,-0.038789913,-0.01725693,0.059101168,0.34927768,-0.03975709,-0.12397463,-7.7250004,-2.775,-35.9625
1763129370126,-0.089132644,6.4444695,7.513463,-0.038789913,-0.01725693,0.059101168,0.34927768,-0.03975709,-0.12397463,-7.7250004,-2.775,-35.9625
1763129370139,-0.089132644,6.4444695,7.513463,-0.038789913,-0.01725693,0.059101168,0.34927768,-0.03975709,-0.12397463,-8.231251,-1.4250001,-34.5
1763129370140,-0.089132644,6.4444695,7.513463,-0.038789913,-0.01725693,0.059101168,0.34866926,-0.04011537,-0.12348382,-8.231251,-1.4250001,-34.5
1763129370148,-0.089132644,6.4444695,7.513463,-0.022296565,0.0012217296,0.064904384,0.34866926,-0.04011537,-0.12348382,-8.231251,-1.4250001,-34.5
1763129370149,-0.058624156,6.463612,7.636095,-0.022296565,0.0012217296,0.064904384,0.34866926,-0.04011537,-0.12348382,-8.231251,-1.4250001,-34.5
1763129370157,-0.058624156,6.463612,7.636095,-0.022296565,0.0012217296,0.064904384,0.3482941,-0.040374674,-0.12298649,-8.231251,-1.4250001,-34.5
1763129370158,-0.058624156,6.463612,7.636095,-0.022296565,0.0012217296,0.064904384,0.3482941,-0.040374674,-0.12298649,-6.9750004,-1.95,-35.8125
1763129370166,-0.058624156,6.463612,7.636095,-0.004734202,0.029779658,0.06963859,0.3482941,-0.040374674,-0.12298649,-6.9750004,-1.95,-35.8125
1763129370167,0.0317049,6.533602,7.640881,-0.004734202,0.029779658,0.06963859,0.3482941,-0.040374674,-0.12298649,-6.9750004,-1.95,-35.8125
1763129370177,0.0317049,6.533602,7.640881,-0.004734202,0.029779658,0.06963859,0.34802163,-0.040409934,-0.12228361,-6.9750004,-1.95,-35.8125
1763129370178,0.0317049,6.533602,7.640881,-0.004734202,0.029779658,0.06963859,0.34802163,-0.040409934,-0.12228361,-6.7125,-1.2375001,-34.706253
1763129370190,0.0317049,6.533602,7.640881,0.0025961753,0.06597339,0.051007207,0.34802163,-0.040409934,-0.12228361,-6.7125,-1.2375001,-34.706253
1763129370191,0.14177474,6.558129,7.516454,0.0025961753,0.06597339,0.051007207,0.34802163,-0.040409934,-0.12228361,-6.7125,-1.2375001,-34.706253
1763129370198,0.14177474,6.558129,7.516454,0.0025961753,0.06597339,0.051007207,0.34795004,-0.0401196,-0.12137258,-6.7125,-1.2375001,-34.706253
1763129370199,0.14177474,6.558129,7.516454,0.0025961753,0.06597339,0.051007207,0.34795004,-0.0401196,-0.12137258,-7.51875,-2.7,-34.10625
1763129370208,0.14177474,6.558129,7.516454,-0.013286309,0.09697478,0.040011644,0.34795004,-0.0401196,-0.12137258,-7.51875,-2.7,-34.10625
1763129370209,-0.0077766734,6.4498534,7.446464,-0.013286309,0.09697478,0.040011644,0.34795004,-0.0401196,-0.12137258,-7.51875,-2.7,-34.10625
1763129370218,-0.0077766734,6.4498534,7.446464,-0.013286309,0.09697478,0.040011644,0.34792113,-0.03960283,-0.12020622,-7.51875,-2.7,-34.10625
1763129370219,-0.0077766734,6.4498534,7.446464,-0.013286309,0.09697478,0.040011644,0.34792113,-0.03960283,-0.12020622,-6.0937505,-0.45000002,-34.275
1763129370232,-0.0077766734,6.4498534,7.446464,-0.0030543238,0.111635536,0.060322896,0.34792113,-0.03960283,-0.12020622,-6.0937505,-0.45000002,-34.275
1763129370233,-0.09930214,6.373283,7.545168,-0.0030543238,0.111635536,0.060322896,0.34792113,-0.03960283,-0.12020622,-6.0937505,-0.45000002,-34.275
1763129370238,-0.09930214,6.373283,7.545168,-0.0030543238,0.111635536,0.060322896,0.34796324,-0.038878832,-0.119129546,-6.0937505,-0.45000002,-34.275
1763129370240,-0.09930214,6.373283,7.545168,-0.0030543238,0.111635536,0.060322896,0.34796324,-0.038878832,-0.119129546,-6.5625005,-2.1750002,-35.325
1763129370250,-0.09930214,6.373283,7.545168,0.03970621,0.18203771,0.061544627,0.34796324,-0.038878832,-0.119129546,-6.5625005,-2.1750002,-35.325
1763129370252,-0.14177474,6.3571315,7.076773,0.03970621,0.18203771,0.061544627,0.34796324,-0.038878832,-0.119129546,-6.5625005,-2.1750002,-35.325
1763129370258,-0.14177474,6.3571315,7.076773,0.03970621,0.18203771,0.061544627,0.34831128,-0.037420485,-0.117925495,-6.5625005,-2.1750002,-35.325
1763129370259,-0.14177474,6.3571315,7.076773,0.03970621,0.18203771,0.061544627,0.34831128,-0.037420485,-0.117925495,-5.2312503,-0.90000004,-35.71875
1763129370273,-0.14177474,6.3571315,7.076773,0.046731155,-0.004581486,0.020158539,0.34831128,-0.037420485,-0.117925495,-5.2312503,-0.90000004,-35.71875
1763129370274,-0.33320054,6.4402823,6.567102,0.046731155,-0.004581486,0.020158539,0.34831128,-0.037420485,-0.117925495,-5.2312503,-0.90000004,-35.71875
1763129370277,-0.33320054,6.4402823,6.567102,0.046731155,-0.004581486,0.020158539,0.3489909,-0.03756586,-0.117677465,-5.2312503,-0.90000004,-35.71875
1763129370278,-0.33320054,6.4402823,6.567102,0.046731155,-0.004581486,0.020158539,0.3489909,-0.03756586,-0.117677465,-7.6312504,-1.9312501,-34.800003
1763129370293,-0.33320054,6.4402823,6.567102,-0.021838415,-0.081397735,0.035888307,0.3489909,-0.03756586,-0.117677465,-7.6312504,-1.9312501,-34.800003
1763129370294,-0.05922236,6.328418,6.8021965,-0.021838415,-0.081397735,0.035888307,0.3489909,-0.03756586,-0.117677465,-7.6312504,-1.9312501,-34.800003
1763129370300,-0.05922236,6.328418,6.8021965,-0.021838415,-0.081397735,0.035888307,0.34956577,-0.038268156,-0.117931165,-7.6312504,-1.9312501,-34.800003
1763129370301,-0.05922236,6.328418,6.8021965,-0.021838415,-0.081397735,0.035888307,0.34956577,-0.038268156,-0.117931165,-6.8437505,-2.86875,-33.5625
1763129370313,-0.05922236,6.328418,6.8021965,-0.12553272,-0.07910699,0.029932374,0.34956577,-0.038268156,-0.117931165,-6.8437505,-2.86875,-33.5625
1763129370314,-0.07178468,6.318846,7.2819576,-0.12553272,-0.07910699,0.029932374,0.34956577,-0.038268156,-0.117931165,-6.8437505,-2.86875,-33.5625
1763129370318,-0.07178468,6.318846,7.2819576,-0.12553272,-0.07910699,0.029932374,0.34873027,-0.03902972,-0.11773585,-6.8437505,-2.86875,-33.5625
1763129370319,-0.07178468,6.318846,7.2819576,-0.12553272,-0.07910699,0.029932374,0.34873027,-0.03902972,-0.11773585,-5.86875,-0.90000004,-35.456253
1763129370334,-0.07178468,6.318846,7.2819576,-0.11988221,-0.009926553,0.036346454,0.34873027,-0.03902972,-0.11773585,-5.86875,-0.90000004,-35.456253
1763129370335,-0.046061836,6.337989,7.870592,-0.11988221,-0.009926553,0.036346454,0.34873027,-0.03902972,-0.11773585,-5.86875,-0.90000004,-35.456253
1763129370337,-0.046061836,6.337989,7.870592,-0.11988221,-0.009926553,0.036346454,0.34753442,-0.03913589,-0.11745933,-5.86875,-0.90000004,-35.456253
1763129370338,-0.046061836,6.337989,7.870592,-0.11988221,-0.009926553,0.036346454,0.34753442,-0.03913589,-0.11745933,-8.700001,-2.34375,-35.15625
1763129370356,-0.046061836,6.337989,7.870592,-0.029474225,0.066431545,0.02611447,0.34753442,-0.03913589,-0.11745933,-8.700001,-2.34375,-35.15625
1763129370357,-0.046061836,6.3589263,7.7796645,-0.029474225,0.066431545,0.02611447,0.34753442,-0.03913589,-0.11745933,-8.700001,-2.34375,-35.15625
1763129370357,-0.046061836,6.3589263,7.7796645,-0.029474225,0.066431545,0.02611447,0.34672487,-0.038585894,-0.11705273,-8.700001,-2.34375,-35.15625
1763129370357,-0.046061836,6.3589263,7.7796645,-0.029474225,0.066431545,0.02611447,0.34672487,-0.038585894,-0.11705273,-8.3625,-2.90625,-34.29375
1763129370378,-0.046061836,6.3589263,7.7796645,-0.029474225,0.066431545,0.02611447,0.34685197,-0.03799285,-0.11678838,-8.3625,-2.90625,-34.29375
1763129370379,-0.046061836,6.3589263,7.7796645,0.051923506,0.07971785,0.007941242,0.34685197,-0.03799285,-0.11678838,-8.3625,-2.90625,-34.29375
1763129370380,-0.19441684,6.245267,7.3011003,0.051923506,0.07971785,0.007941242,0.34685197,-0.03799285,-0.11678838,-8.3625,-2.90625,-34.29375
1763129370381,-0.19441684,6.245267,7.3011003,0.051923506,0.07971785,0.007941242,0.34685197,-0.03799285,-0.11678838,-9.825001,-3.3937502,-33.693752
1763129370403,-0.19441684,6.245267,7.3011003,0.051923506,0.07971785,0.007941242,0.34746328,-0.038274404,-0.11688554,-9.825001,-3.3937502,-33.693752
1763129370404,-0.19441684,6.245267,7.3011003,0.075594515,-0.019089524,0.024587307,0.34746328,-0.038274404,-0.11688554,-9.825001,-3.3937502,-33.693752
1763129370404,-0.19441684,6.245267,7.3011003,0.075594515,-0.019089524,0.024587307,0.34746328,-0.038274404,-0.11688554,-7.93125,-1.5375,-35.60625
1763129370404,-0.35533416,6.3589263,6.8781686,0.075594515,-0.019089524,0.024587307,0.34746328,-0.038274404,-0.11688554,-7.93125,-1.5375,-35.60625
