timestamp,accX,accY,accZ,gyroX,gyroY,gyroZ,rotX,rotY,rotZ,magX,magY,magZ
1763129289832,-7.219744,5.7876396,0.9379865,-0.10583232,-1.4984514,-0.52748173,0.49727872,0.007859492,-0.67084676,25.2,-19.5,-21.75
1763129289834,-6.600601,5.3970113,0.84406817,-0.10583232,-1.4984514,-0.52748173,0.49727872,0.007859492,-0.67084676,25.2,-19.5,-21.75
1763129289837,-6.600601,5.3970113,0.84406817,-0.10583232,-1.4984514,-0.52748173,0.48691007,0.0044103335,-0.67930335,25.2,-19.5,-21.75
1763129289837,-6.600601,5.3970113,0.84406817,-0.10583232,-1.4984514,-0.52748173,0.48691007,0.0044103335,-0.67930335,22.44375,-19.81875,-21.88125
1763129289853,-6.600601,5.3970113,0.84406817,-0.61285007,-2.0885468,-0.40378162,0.48691007,0.0044103335,-0.67930335,22.44375,-19.81875,-21.88125
1763129289853,-7.009176,5.1332026,5.2642097,-0.61285007,-2.0885468,-0.40378162,0.48691007,0.0044103335,-0.67930335,22.44375,-19.81875,-21.88125
1763129289860,-7.009176,5.1332026,5.2642097,-0.61285007,-2.0885468,-0.40378162,0.46926823,4.6084748E-4,-0.6897507,22.44375,-19.81875,-21.88125
1763129289861,-7.009176,5.1332026,5.2642097,-0.61285007,-2.0885468,-0.40378162,0.46926823,4.6084748E-4,-0.6897507,23.60625,-12.0,-23.00625
1763129289874,-7.009176,5.1332026,5.2642097,-0.65591604,-1.5644248,-0.25992295,0.46926823,4.6084748E-4,-0.6897507,23.60625,-12.0,-23.00625
1763129289876,-6.1956162,4.6097727,8.411369,-0.65591604,-1.5644248,-0.25992295,0.46926823,4.6084748E-4,-0.6897507,23.60625,-12.0,-23.00625
1763129289878,-6.1956162,4.6097727,8.411369,-0.65591604,-1.5644248,-0.25992295,0.4542651,-0.0022612337,-0.6985378,23.60625,-12.0,-23.00625
1763129289878,-6.1956162,4.6097727,8.411369,-0.65591604,-1.5644248,-0.25992295,0.4542651,-0.0022612337,-0.6985378,20.8875,-15.69375,-23.587502
1763129289894,-6.1956162,4.6097727,8.411369,-0.2800815,-0.9645555,-0.22663084,0.4542651,-0.0022612337,-0.6985378,20.8875,-15.69375,-23.587502
1763129289895,-6.2757754,4.4662037,8.38804,-0.2800815,-0.9645555,-0.22663084,0.4542651,-0.0022612337,-0.6985378,20.8875,-15.69375,-23.587502
1763129289897,-6.2757754,4.4662037,8.38804,-0.2800815,-0.9645555,-0.22663084,0.4450636,-0.0055269515,-0.7056987,20.8875,-15.69375,-23.587502
1763129289898,-6.2757754,4.4662037,8.38804,-0.2800815,-0.9645555,-0.22663084,0.4450636,-0.0055269515,-0.7056987,18.900002,-18.243752,-24.69375
1763129289915,-6.2757754,4.4662037,8.38804,-0.048411034,-0.5997165,-0.20051636,0.4450636,-0.0055269515,-0.7056987,18.900002,-18.243752,-24.69375
1763129289916,-6.215357,4.7365923,6.544968,-0.048411034,-0.5997165,-0.20051636,0.4450636,-0.0055269515,-0.7056987,18.900002,-18.243752,-24.69375
1763129289917,-6.215357,4.7365923,6.544968,-0.048411034,-0.5997165,-0.20051636,0.439884,-0.0084560085,-0.71092933,18.900002,-18.243752,-24.69375
1763129289917,-6.215357,4.7365923,6.544968,-0.048411034,-0.5997165,-0.20051636,0.439884,-0.0084560085,-0.71092933,14.681251,-18.0375,-17.98125
1763129289938,-6.215357,4.7365923,6.544968,-0.10537417,-0.6191115,-0.22617269,0.439884,-0.0084560085,-0.71092933,14.681251,-18.0375,-17.98125
1763129289939,-6.215357,4.7365923,6.544968,-0.10537417,-0.6191115,-0.22617269,0.43460315,-0.010298818,-0.7153168,14.681251,-18.0375,-17.98125
1763129289940,-6.2195444,4.871787,4.918447,-0.10537417,-0.6191115,-0.22617269,0.43460315,-0.010298818,-0.7153168,14.681251,-18.0375,-17.98125
1763129289941,-6.2195444,4.871787,4.918447,-0.10537417,-0.6191115,-0.22617269,0.43460315,-0.010298818,-0.7153168,15.075001,-20.38125,-19.5
1763129289958,-6.2195444,4.871787,4.918447,-0.10537417,-0.6191115,-0.22617269,0.4267196,-0.011493164,-0.72025317,15.075001,-20.38125,-19.5
1763129289960,-6.2195444,4.871787,4.918447,-0.28084508,-0.8761328,-0.27962336,0.4267196,-0.011493164,-0.72025317,15.075001,-20.38125,-19.5
1763129289961,-6.2195444,4.871787,4.918447,-0.28084508,-0.8761328,-0.27962336,0.4267196,-0.011493164,-0.72025317,19.63125,-17.1375,-26.437502
1763129289962,-5.97428,5.03749,4.889733,-0.28084508,-0.8761328,-0.27962336,0.4267196,-0.011493164,-0.72025317,19.63125,-17.1375,-26.437502
1763129289977,-5.97428,5.03749,4.889733,-0.28084508,-0.8761328,-0.27962336,0.4267196,-0.011493164,-0.72025317,18.487501,-18.0375,-25.331251
1763129289979,-5.97428,5.03749,4.889733,-0.39522952,-0.9935716,-0.35781404,0.4267196,-0.011493164,-0.72025317,18.487501,-18.0375,-25.331251
1763129289979,-5.97428,5.03749,4.889733,-0.39522952,-0.9935716,-0.35781404,0.41729298,-0.01209818,-0.7258848,18.487501,-18.0375,-25.331251
1763129289980,-5.7487564,4.9788656,6.133403,-0.39522952,-0.9935716,-0.35781404,0.41729298,-0.01209818,-0.7258848,18.487501,-18.0375,-25.331251
1763129289997,-5.7487564,4.9788656,6.133403,-0.39522952,-0.9935716,-0.35781404,0.41729298,-0.01209818,-0.7258848,18.150002,-17.475,-26.04375
1763129289999,-5.7487564,4.9788656,6.133403,-0.39522952,-0.9935716,-0.35781404,0.40840423,-0.012740104,-0.7317843,18.150002,-17.475,-26.04375
1763129290001,-5.7487564,4.9788656,6.133403,-0.35506517,-0.9184352,-0.3979784,0.40840423,-0.012740104,-0.7317843,18.150002,-17.475,-26.04375
1763129290002,-5.4957156,4.651647,6.9535427,-0.35506517,-0.9184352,-0.3979784,0.40840423,-0.012740104,-0.7317843,18.150002,-17.475,-26.04375
1763129290018,-5.4957156,4.651647,6.9535427,-0.35506517,-0.9184352,-0.3979784,0.40840423,-0.012740104,-0.7317843,15.50625,-16.96875,-25.893751
1763129290021,-5.4957156,4.651647,6.9535427,-0.21655156,-0.90866137,-0.39843655,0.40840423,-0.012740104,-0.7317843,15.50625,-16.96875,-25.893751
1763129290022,-5.419145,4.621737,6.6969123,-0.21655156,-0.90866137,-0.39843655,0.40840423,-0.012740104,-0.7317843,15.50625,-16.96875,-25.893751
1763129290023,-5.419145,4.621737,6.6969123,-0.21655156,-0.90866137,-0.39843655,0.40016174,-0.014644623,-0.73798025,15.50625,-16.96875,-25.893751
1763129290038,-5.419145,4.621737,6.6969123,-0.21655156,-0.90866137,-0.39843655,0.40016174,-0.014644623,-0.73798025,16.35,-16.612501,-26.343752
1763129290041,-5.4729834,4.822734,6.5515485,-0.21655156,-0.90866137,-0.39843655,0.40016174,-0.014644623,-0.73798025,16.35,-16.612501,-26.343752
1763129290041,-5.4729834,4.822734,6.5515485,-0.14767656,-1.0178534,-0.42134398,0.40016174,-0.014644623,-0.73798025,16.35,-16.612501,-26.343752
1763129290042,-5.4729834,4.822734,6.5515485,-0.14767656,-1.0178534,-0.42134398,0.3914992,-0.0174985,-0.7444792,16.35,-16.612501,-26.343752
1763129290059,-5.4729834,4.822734,6.5515485,-0.14767656,-1.0178534,-0.42134398,0.3914992,-0.0174985,-0.7444792,12.750001,-17.41875,-23.868752
1763129290062,-5.5016975,4.6025944,6.8464637,-0.14767656,-1.0178534,-0.42134398,0.3914992,-0.0174985,-0.7444792,12.750001,-17.41875,-23.868752
1763129290063,-5.5016975,4.6025944,6.8464637,-0.14981459,-1.081536,-0.43966994,0.3914992,-0.0174985,-0.7444792,12.750001,-17.41875,-23.868752
1763129290064,-5.5016975,4.6025944,6.8464637,-0.14981459,-1.081536,-0.43966994,0.38238055,-0.0204867,-0.7509658,12.750001,-17.41875,-23.868752
1763129290077,-5.5016975,4.6025944,6.8464637,-0.14981459,-1.081536,-0.43966994,0.38238055,-0.0204867,-0.7509658,14.587501,-14.437501,-26.081251
1763129290083,-5.5016975,4.6025944,6.8464637,-0.14981459,-1.081536,-0.43966994,0.37324247,-0.023358732,-0.7574337,14.587501,-14.437501,-26.081251
1763129290083,-5.5016975,4.6025944,6.8464637,-0.15867212,-1.0679444,-0.4415025,0.37324247,-0.023358732,-0.7574337,14.587501,-14.437501,-26.081251
1763129290083,-5.3007,4.2867417,7.0600233,-0.15867212,-1.0679444,-0.4415025,0.37324247,-0.023358732,-0.7574337,14.587501,-14.437501,-26.081251
1763129290097,-5.3007,4.2867417,7.0600233,-0.15867212,-1.0679444,-0.4415025,0.37324247,-0.023358732,-0.7574337,7.70625,-20.493752,-20.90625
1763129290105,-5.058427,4.2795634,7.3363943,-0.15867212,-1.0679444,-0.4415025,0.37324247,-0.023358732,-0.7574337,7.70625,-20.493752,-20.90625
1763129290106,-5.058427,4.2795634,7.3363943,-0.16722423,-1.1074978,-0.4575377,0.37324247,-0.023358732,-0.7574337,7.70625,-20.493752,-20.90625
1763129290107,-5.058427,4.2795634,7.3363943,-0.16722423,-1.1074978,-0.4575377,0.36363697,-0.026387768,-0.76420236,7.70625,-20.493752,-20.90625
1763129290118,-5.058427,4.2795634,7.3363943,-0.16722423,-1.1074978,-0.4575377,0.36363697,-0.026387768,-0.76420236,14.025001,-14.606251,-29.831251
1763129290125,-5.058427,4.2795634,7.3363943,-0.170584,-1.0696242,-0.47693267,0.36363697,-0.026387768,-0.76420236,14.025001,-14.606251,-29.831251
1763129290126,-4.8993044,4.168297,7.60439,-0.170584,-1.0696242,-0.47693267,0.36363697,-0.026387768,-0.76420236,14.025001,-14.606251,-29.831251
1763129290139,-4.8993044,4.168297,7.60439,-0.170584,-1.0696242,-0.47693267,0.3542293,-0.029152684,-0.77085,14.025001,-14.606251,-29.831251
1763129290140,-4.8993044,4.168297,7.60439,-0.170584,-1.0696242,-0.47693267,0.3542293,-0.029152684,-0.77085,13.51875,-15.656251,-26.23125
1763129290147,-4.8993044,4.168297,7.60439,-0.14370593,-1.0601559,-0.45127636,0.3542293,-0.029152684,-0.77085,13.51875,-15.656251,-26.23125
1763129290148,-4.851448,3.8751762,7.385447,-0.14370593,-1.0601559,-0.45127636,0.3542293,-0.029152684,-0.77085,13.51875,-15.656251,-26.23125
1763129290159,-4.851448,3.8751762,7.385447,-0.14370593,-1.0601559,-0.45127636,0.34495077,-0.032215405,-0.77727634,13.51875,-15.656251,-26.23125
1763129290160,-4.851448,3.8751762,7.385447,-0.14370593,-1.0601559,-0.45127636,0.34495077,-0.032215405,-0.77727634,13.81875,-14.306251,-27.093752
1763129290167,-4.851448,3.8751762,7.385447,-0.1395826,-1.1751511,-0.39186975,0.34495077,-0.032215405,-0.77727634,13.81875,-14.306251,-27.093752
1763129290168,-4.6486564,3.946961,6.914061,-0.1395826,-1.1751511,-0.39186975,0.34495077,-0.032215405,-0.77727634,13.81875,-14.306251,-27.093752
1763129290177,-4.6486564,3.946961,6.914061,-0.1395826,-1.1751511,-0.39186975,0.33472994,-0.036086444,-0.783644,13.81875,-14.306251,-27.093752
1763129290178,-4.6486564,3.946961,6.914061,-0.1395826,-1.1751511,-0.39186975,0.33472994,-0.036086444,-0.783644,11.38125,-15.843751,-26.5125
1763129290188,-4.6486564,3.946961,6.914061,-0.16081016,-1.4156791,-0.3932442,0.33472994,-0.036086444,-0.783644,11.38125,-15.843751,-26.5125
1763129290190,-4.2460637,4.150351,6.7651076,-0.16081016,-1.4156791,-0.3932442,0.33472994,-0.036086444,-0.783644,11.38125,-15.843751,-26.5125
1763129290201,-4.2460637,4.150351,6.7651076,-0.16081016,-1.4156791,-0.3932442,0.3224715,-0.0409721,-0.7904232,11.38125,-15.843751,-26.5125
1763129290202,-4.2460637,4.150351,6.7651076,-0.16081016,-1.4156791,-0.3932442,0.3224715,-0.0409721,-0.7904232,10.03125,-17.75625,-26.7
1763129290210,-4.2460637,4.150351,6.7651076,-0.17608178,-1.6740749,-0.4566214,0.3224715,-0.0409721,-0.7904232,10.03125,-17.75625,-26.7
1763129290211,-3.9972103,4.2484565,6.8931236,-0.17608178,-1.6740749,-0.4566214,0.3224715,-0.0409721,-0.7904232,10.03125,-17.75625,-26.7
1763129290218,-3.9972103,4.2484565,6.8931236,-0.17608178,-1.6740749,-0.4566214,0.3224715,-0.0409721,-0.7904232,10.275001,-16.893751,-27.6
1763129290219,-3.9972103,4.2484565,6.8931236,-0.17608178,-1.6740749,-0.4566214,0.30798557,-0.046905722,-0.7979936,10.275001,-16.893751,-27.6
1763129290231,-3.9972103,4.2484565,6.8931236,-0.20112723,-1.9532402,-0.5345067,0.30798557,-0.046905722,-0.7979936,10.275001,-16.893751,-27.6
1763129290232,-3.903292,4.2275195,7.0079794,-0.20112723,-1.9532402,-0.5345067,0.30798557,-0.046905722,-0.7979936,10.275001,-16.893751,-27.6
1763129290237,-3.903292,4.2275195,7.0079794,-0.20112723,-1.9532402,-0.5345067,0.2909908,-0.053882573,-0.8064966,10.275001,-16.893751,-27.6
1763129290238,-3.903292,4.2275195,7.0079794,-0.20112723,-1.9532402,-0.5345067,0.2909908,-0.053882573,-0.8064966,6.8625,-16.9125,-29.062502
1763129290251,-3.903292,4.2275195,7.0079794,-0.24205516,-2.1994185,-0.56367546,0.2909908,-0.053882573,-0.8064966,6.8625,-16.9125,-29.062502
1763129290252,-3.8093736,3.9720855,7.4213395,-0.24205516,-2.1994185,-0.56367546,0.2909908,-0.053882573,-0.8064966,6.8625,-16.9125,-29.062502
1763129290260,-3.8093736,3.9720855,7.4213395,-0.24205516,-2.1994185,-0.56367546,0.2716387,-0.06170183,-0.8154464,6.8625,-16.9125,-29.062502
1763129290261,-3.8093736,3.9720855,7.4213395,-0.24205516,-2.1994185,-0.56367546,0.2716387,-0.06170183,-0.8154464,5.15625,-17.456251,-28.518751
1763129290272,-3.8093736,3.9720855,7.4213395,-0.27931792,-2.3590071,-0.5348121,0.2716387,-0.06170183,-0.8154464,5.15625,-17.456251,-28.518751
1763129290273,-3.4420755,3.6478581,7.9920278,-0.27931792,-2.3590071,-0.5348121,0.2716387,-0.06170183,-0.8154464,5.15625,-17.456251,-28.518751
1763129290278,-3.4420755,3.6478581,7.9920278,-0.27931792,-2.3590071,-0.5348121,0.25054628,-0.07011212,-0.82434845,5.15625,-17.456251,-28.518751
1763129290279,-3.4420755,3.6478581,7.9920278,-0.27931792,-2.3590071,-0.5348121,0.25054628,-0.07011212,-0.82434845,4.59375,-16.3125,-29.1375
1763129290294,-3.4420755,3.6478581,7.9920278,-0.28420484,-2.1635303,-0.58994263,0.25054628,-0.07011212,-0.82434845,4.59375,-16.3125,-29.1375
1763129290295,-3.0035906,3.7615173,9.78485,-0.28420484,-2.1635303,-0.58994263,0.25054628,-0.07011212,-0.82434845,4.59375,-16.3125,-29.1375
1763129290299,-3.0035906,3.7615173,9.78485,-0.28420484,-2.1635303,-0.58994263,0.23091379,-0.077351555,-0.8327906,4.59375,-16.3125,-29.1375
1763129290300,-3.0035906,3.7615173,9.78485,-0.28420484,-2.1635303,-0.58994263,0.23091379,-0.077351555,-0.8327906,3.1125002,-16.800001,-27.7875
1763129290315,-3.0035906,3.7615173,9.78485,-0.29718572,-1.539532,-0.6687442,0.23091379,-0.077351555,-0.8327906,3.1125002,-16.800001,-27.7875
1763129290315,-2.9222345,3.1980073,10.0163555,-0.29718572,-1.539532,-0.6687442,0.23091379,-0.077351555,-0.8327906,3.1125002,-16.800001,-27.7875
1763129290318,-2.9222345,3.1980073,10.0163555,-0.29718572,-1.539532,-0.6687442,0.21638218,-0.08118448,-0.8401726,3.1125002,-16.800001,-27.7875
1763129290319,-2.9222345,3.1980073,10.0163555,-0.29718572,-1.539532,-0.6687442,0.21638218,-0.08118448,-0.8401726,-0.056250002,-17.7,-28.331251
1763129290335,-2.9222345,3.1980073,10.0163555,-0.29794928,-1.3252711,-0.49006626,0.21638218,-0.08118448,-0.8401726,-0.056250002,-17.7,-28.331251
1763129290336,-2.922833,2.0464616,8.778668,-0.29794928,-1.3252711,-0.49006626,0.21638218,-0.08118448,-0.8401726,-0.056250002,-17.7,-28.331251
1763129290337,-2.922833,2.0464616,8.778668,-0.29794928,-1.3252711,-0.49006626,0.20345417,-0.08423195,-0.8461295,-0.056250002,-17.7,-28.331251
1763129290339,-2.922833,2.0464616,8.778668,-0.29794928,-1.3252711,-0.49006626,0.20345417,-0.08423195,-0.8461295,-0.01875,-18.0,-27.7875
1763129290358,-2.922833,2.0464616,8.778668,-0.29794928,-1.3252711,-0.49006626,0.18998194,-0.08709012,-0.8505592,-0.01875,-18.0,-27.7875
1763129290359,-2.922833,2.0464616,8.778668,-0.36361727,-1.3196206,-0.19685118,0.18998194,-0.08709012,-0.8505592,-0.01875,-18.0,-27.7875
1763129290360,-2.922833,2.0464616,8.778668,-0.36361727,-1.3196206,-0.19685118,0.18998194,-0.08709012,-0.8505592,0.24375,-16.35,-28.29375
1763129290362,-3.0610185,2.8265216,10.103694,-0.36361727,-1.3196206,-0.19685118,0.18998194,-0.08709012,-0.8505592,0.24375,-16.35,-28.29375
1763129290379,-2.620739,3.2207394,10.329217,-0.36361727,-1.3196206,-0.19685118,0.18998194,-0.08709012,-0.8505592,0.24375,-16.35,-28.29375
1763129290380,-2.620739,3.2207394,10.329217,-0.42164943,-0.8704823,-0.018784093,0.18998194,-0.08709012,-0.8505592,0.24375,-16.35,-28.29375
1763129290382,-2.620739,3.2207394,10.329217,-0.42164943,-0.8704823,-0.018784093,0.18010645,-0.087511465,-0.8529138,0.24375,-16.35,-28.29375
1763129290384,-2.620739,3.2207394,10.329217,-0.42164943,-0.8704823,-0.018784093,0.18010645,-0.087511465,-0.8529138,-2.5687501,-17.962502,-28.237501
1763129290398,-2.620739,3.2207394,10.329217,-0.38621926,-0.56062114,0.0594066,0.18010645,-0.087511465,-0.8529138,-2.5687501,-17.962502,-28.237501
1763129290399,-2.620739,3.2207394,10.329217,-0.38621926,-0.56062114,0.0594066,0.1730837,-0.086924575,-0.8540825,-2.5687501,-17.962502,-28.237501
1763129290401,-2.324029,3.0436704,10.003195,-0.38621926,-0.56062114,0.0594066,0.1730837,-0.086924575,-0.8540825,-2.5687501,-17.962502,-28.237501
1763129290402,-2.324029,3.0436704,10.003195,-0.38621926,-0.56062114,0.0594066,0.1730837,-0.086924575,-0.8540825,-3.24375,-16.837502,-29.04375
1763129290418,-2.324029,3.0436704,10.003195,-0.38621926,-0.56062114,0.0594066,0.1730837,-0.086924575,-0.8540825,-3.0187502,-18.375,-27.206251
1763129290420,-2.324029,3.0436704,10.003195,-0.2669479,-0.6688969,0.030390523,0.1730837,-0.086924575,-0.8540825,-3.0187502,-18.375,-27.206251
1763129290421,-2.324029,3.0436704,10.003195,-0.2669479,-0.6688969,0.030390523,0.16569534,-0.08791308,-0.8554513,-3.0187502,-18.375,-27.206251
1763129290422,-1.9848464,2.678765,9.538987,-0.2669479,-0.6688969,0.030390523,0.16569534,-0.08791308,-0.8554513,-3.0187502,-18.375,-27.206251
1763129290437,-1.9848464,2.678765,9.538987,-0.2669479,-0.6688969,0.030390523,0.16569534,-0.08791308,-0.8554513,-4.0125003,-18.75,-25.275002
1763129290440,-1.9848464,2.678765,9.538987,-0.15409064,-0.63988084,0.0059559317,0.16569534,-0.08791308,-0.8554513,-4.0125003,-18.75,-25.275002
1763129290441,-1.9848464,2.678765,9.538987,-0.15409064,-0.63988084,0.0059559317,0.1590955,-0.089727305,-0.85684526,-4.0125003,-18.75,-25.275002
1763129290443,-2.0422742,2.6703901,9.295518,-0.15409064,-0.63988084,0.0059559317,0.1590955,-0.089727305,-0.85684526,-4.0125003,-18.75,-25.275002
1763129290458,-2.0422742,2.6703901,9.295518,-0.15409064,-0.63988084,0.0059559317,0.1590955,-0.089727305,-0.85684526,-4.93125,-16.893751,-26.6625
1763129290461,-2.0422742,2.6703901,9.295518,-3.054324E-4,-0.6203332,0.06856957,0.1590955,-0.089727305,-0.85684526,-4.93125,-16.893751,-26.6625
1763129290463,-2.2444677,2.6955147,9.4432745,-3.054324E-4,-0.6203332,0.06856957,0.1590955,-0.089727305,-0.85684526,-4.93125,-16.893751,-26.6625
1763129290464,-2.2444677,2.6955147,9.4432745,-3.054324E-4,-0.6203332,0.06856957,0.15345743,-0.09287743,-0.85761046,-4.93125,-16.893751,-26.6625
1763129290478,-2.2444677,2.6955147,9.4432745,-3.054324E-4,-0.6203332,0.06856957,0.15345743,-0.09287743,-0.85761046,-2.8500001,-15.750001,-25.125002
1763129290484,-2.2444677,2.6955147,9.4432745,0.22937973,-0.6498074,0.20708317,0.15345743,-0.09287743,-0.85761046,-2.8500001,-15.750001,-25.125002
1763129290485,-2.2444677,2.6955147,9.4432745,0.22937973,-0.6498074,0.20708317,0.14864083,-0.09838958,-0.8574095,-2.8500001,-15.750001,-25.125002
1763129290486,-2.2360928,2.705086,9.96491,0.22937973,-0.6498074,0.20708317,0.14864083,-0.09838958,-0.8574095,-2.8500001,-15.750001,-25.125002
1763129290498,-2.2360928,2.705086,9.96491,0.22937973,-0.6498074,0.20708317,0.14864083,-0.09838958,-0.8574095,-5.5687504,-16.875,-27.000002
1763129290504,-2.2360928,2.705086,9.96491,0.22937973,-0.6498074,0.20708317,0.14647028,-0.104365766,-0.85581034,-5.5687504,-16.875,-27.000002
1763129290505,-1.8711873,2.8073792,9.595219,0.22937973,-0.6498074,0.20708317,0.14647028,-0.104365766,-0.85581034,-5.5687504,-16.875,-27.000002
1763129290506,-1.8711873,2.8073792,9.595219,0.38423395,-0.4150826,0.39354962,0.14647028,-0.104365766,-0.85581034,-5.5687504,-16.875,-27.000002
1763129290517,-1.8711873,2.8073792,9.595219,0.38423395,-0.4150826,0.39354962,0.14647028,-0.104365766,-0.85581034,-5.4750004,-17.643751,-24.956251
1763129290525,-1.8711873,2.8073792,9.595219,0.38423395,-0.4150826,0.39354962,0.14534399,-0.10918544,-0.8536752,-5.4750004,-17.643751,-24.956251
1763129290526,-1.8711873,2.8073792,9.595219,0.32925612,-0.2556469,0.4535671,0.14534399,-0.10918544,-0.8536752,-5.4750004,-17.643751,-24.956251
1763129290527,-1.2059826,3.165106,8.737391,0.32925612,-0.2556469,0.4535671,0.14534399,-0.10918544,-0.8536752,-5.4750004,-17.643751,-24.956251
1763129290538,-1.2059826,3.165106,8.737391,0.32925612,-0.2556469,0.4535671,0.14534399,-0.10918544,-0.8536752,-4.51875,-17.118752,-26.775002
1763129290545,-1.2059826,3.165106,8.737391,0.2083049,-0.3839285,0.39935285,0.14534399,-0.10918544,-0.8536752,-4.51875,-17.118752,-26.775002
1763129290547,-0.9314062,3.4660037,8.815159,0.2083049,-0.3839285,0.39935285,0.14534399,-0.10918544,-0.8536752,-4.51875,-17.118752,-26.775002
1763129290559,-0.9314062,3.4660037,8.815159,0.2083049,-0.3839285,0.39935285,0.14251351,-0.1136359,-0.851946,-4.51875,-17.118752,-26.775002
1763129290560,-0.9314062,3.4660037,8.815159,0.2083049,-0.3839285,0.39935285,0.14251351,-0.1136359,-0.851946,-3.80625,-15.975,-26.41875
1763129290568,-0.9314062,3.4660037,8.815159,0.14599667,-0.32971427,0.29275694,0.14251351,-0.1136359,-0.851946,-3.80625,-15.975,-26.41875
1763129290569,-0.7962117,3.6406796,9.094521,0.14599667,-0.32971427,0.29275694,0.14251351,-0.1136359,-0.851946,-3.80625,-15.975,-26.41875
1763129290578,-0.7962117,3.6406796,9.094521,0.14599667,-0.32971427,0.29275694,0.13996479,-0.117148176,-0.85067,-3.80625,-15.975,-26.41875
1763129290578,-0.7962117,3.6406796,9.094521,0.14599667,-0.32971427,0.29275694,0.13996479,-0.117148176,-0.85067,-5.4187503,-17.15625,-26.118752
1763129290587,-0.7962117,3.6406796,9.094521,0.06780599,-0.19822562,0.14110976,0.13996479,-0.117148176,-0.85067,-5.4187503,-17.15625,-26.118752
1763129290588,-0.7190432,3.394219,8.900104,0.06780599,-0.19822562,0.14110976,0.13996479,-0.117148176,-0.85067,-5.4187503,-17.15625,-26.118752
1763129290597,-0.7190432,3.394219,8.900104,0.06780599,-0.19822562,0.14110976,0.13834876,-0.119087204,-0.850071,-5.4187503,-17.15625,-26.118752
1763129290598,-0.7190432,3.394219,8.900104,0.06780599,-0.19822562,0.14110976,0.13834876,-0.119087204,-0.850071,-5.3812504,-17.306252,-26.362501
1763129290609,-0.7190432,3.394219,8.900104,-0.010537418,-0.21762058,0.069485866,0.13834876,-0.119087204,-0.850071,-5.3812504,-17.306252,-26.362501
1763129290610,-0.80997044,3.2907293,8.82473,-0.010537418,-0.21762058,0.069485866,0.13834876,-0.119087204,-0.850071,-5.3812504,-17.306252,-26.362501
1763129290618,-0.80997044,3.2907293,8.82473,-0.010537418,-0.21762058,0.069485866,0.13620292,-0.12030736,-0.85004675,-5.3812504,-17.306252,-26.362501
1763129290619,-0.80997044,3.2907293,8.82473,-0.010537418,-0.21762058,0.069485866,0.13620292,-0.12030736,-0.85004675,-5.7937503,-17.1,-27.150002
1763129290629,-0.80997044,3.2907293,8.82473,0.014813471,-0.3857611,0.108123064,0.13620292,-0.12030736,-0.85004675,-5.7937503,-17.1,-27.150002
1763129290631,-0.86979103,3.4899318,9.141779,0.014813471,-0.3857611,0.108123064,0.13620292,-0.12030736,-0.85004675,-5.7937503,-17.1,-27.150002
1763129290638,-0.86979103,3.4899318,9.141779,0.014813471,-0.3857611,0.108123064,0.13267104,-0.12263663,-0.8500138,-5.7937503,-17.1,-27.150002
1763129290639,-0.86979103,3.4899318,9.141779,0.014813471,-0.3857611,0.108123064,0.13267104,-0.12263663,-0.8500138,-6.7125,-17.118752,-25.143751
1763129290651,-0.86979103,3.4899318,9.141779,0.16142102,-0.42943794,0.10644319,0.13267104,-0.12263663,-0.8500138,-6.7125,-17.118752,-25.143751
1763129290652,-0.6047859,3.7501514,9.665209,0.16142102,-0.42943794,0.10644319,0.13267104,-0.12263663,-0.8500138,-6.7125,-17.118752,-25.143751
1763129290658,-0.6047859,3.7501514,9.665209,0.16142102,-0.42943794,0.10644319,0.12955302,-0.12647803,-0.84979266,-6.7125,-17.118752,-25.143751
1763129290658,-0.6047859,3.7501514,9.665209,0.16142102,-0.42943794,0.10644319,0.12955302,-0.12647803,-0.84979266,-5.775,-17.400002,-25.25625
1763129290671,-0.6047859,3.7501514,9.665209,0.29871288,-0.26480988,-0.02367101,0.12955302,-0.12647803,-0.84979266,-5.775,-17.400002,-25.25625
1763129290673,-0.49112684,3.6526437,9.5557375,0.29871288,-0.26480988,-0.02367101,0.12955302,-0.12647803,-0.84979266,-5.775,-17.400002,-25.25625
1763129290678,-0.49112684,3.6526437,9.5557375,0.29871288,-0.26480988,-0.02367101,0.12871309,-0.13056223,-0.84988606,-5.775,-17.400002,-25.25625
1763129290679,-0.49112684,3.6526437,9.5557375,0.29871288,-0.26480988,-0.02367101,0.12871309,-0.13056223,-0.84988606,-6.1875005,-17.025002,-26.831251
1763129290692,-0.49112684,3.6526437,9.5557375,0.3046688,-0.11835505,-0.12599087,0.12871309,-0.13056223,-0.84988606,-6.1875005,-17.025002,-26.831251
1763129290693,-0.62512493,3.4325042,8.992228,0.3046688,-0.11835505,-0.12599087,0.12871309,-0.13056223,-0.84988606,-6.1875005,-17.025002,-26.831251
1763129290698,-0.62512493,3.4325042,8.992228,0.3046688,-0.11835505,-0.12599087,0.12929295,-0.13380496,-0.85037076,-6.1875005,-17.025002,-26.831251
1763129290699,-0.62512493,3.4325042,8.992228,0.3046688,-0.11835505,-0.12599087,0.12929295,-0.13380496,-0.85037076,-6.4125004,-17.23125,-27.000002
1763129290713,-0.62512493,3.4325042,8.992228,0.16752967,-0.12797616,-0.107359484,0.12929295,-0.13380496,-0.85037076,-6.4125004,-17.23125,-27.000002
1763129290714,-0.83389866,3.286542,8.575876,0.16752967,-0.12797616,-0.107359484,0.12929295,-0.13380496,-0.85037076,-6.4125004,-17.23125,-27.000002
1763129290719,-0.83389866,3.286542,8.575876,0.16752967,-0.12797616,-0.107359484,0.12910026,-0.13585325,-0.8509258,-6.4125004,-17.23125,-27.000002
1763129290720,-0.83389866,3.286542,8.575876,0.16752967,-0.12797616,-0.107359484,0.12910026,-0.13585325,-0.8509258,-7.3500004,-18.431252,-28.1625
1763129290734,-0.83389866,3.286542,8.575876,-0.0018325944,-0.30024004,-0.016035201,0.12910026,-0.13585325,-0.8509258,-7.3500004,-18.431252,-28.1625
1763129290736,-0.91585284,3.3517463,8.588439,-0.0018325944,-0.30024004,-0.016035201,0.12910026,-0.13585325,-0.8509258,-7.3500004,-18.431252,-28.1625
1763129290739,-0.91585284,3.3517463,8.588439,-0.0018325944,-0.30024004,-0.016035201,0.12645538,-0.13734151,-0.8513979,-7.3500004,-18.431252,-28.1625
1763129290741,-0.91585284,3.3517463,8.588439,-0.0018325944,-0.30024004,-0.016035201,0.12645538,-0.13734151,-0.8513979,-6.525,-18.056252,-27.112501
1763129290755,-0.91585284,3.3517463,8.588439,-0.08689552,-0.4065305,0.016493348,0.12645538,-0.13734151,-0.8513979,-6.525,-18.056252,-27.112501
1763129290756,-0.77647096,3.554538,8.892925,-0.08689552,-0.4065305,0.016493348,0.12645538,-0.13734151,-0.8513979,-6.525,-18.056252,-27.112501
1763129290759,-0.77647096,3.554538,8.892925,-0.08689552,-0.4065305,0.016493348,0.12243868,-0.13863662,-0.8518792,-6.525,-18.056252,-27.112501
1763129290761,-0.77647096,3.554538,8.892925,-0.08689552,-0.4065305,0.016493348,0.12243868,-0.13863662,-0.8518792,-7.0312505,-16.575,-27.056252
1763129290776,-0.77647096,3.554538,8.892925,-0.10293072,-0.3431533,-0.027336199,0.12243868,-0.13863662,-0.8518792,-7.0312505,-16.575,-27.056252
1763129290777,-0.6861419,3.4612179,8.979665,-0.10293072,-0.3431533,-0.027336199,0.12243868,-0.13863662,-0.8518792,-7.0312505,-16.575,-27.056252
1763129290778,-0.6861419,3.4612179,8.979665,-0.10293072,-0.3431533,-0.027336199,0.1189636,-0.13943636,-0.8524871,-7.0312505,-16.575,-27.056252
1763129290780,-0.6861419,3.4612179,8.979665,-0.10293072,-0.3431533,-0.027336199,0.1189636,-0.13943636,-0.8524871,-8.34375,-18.65625,-27.0375
1763129290798,-0.6861419,3.4612179,8.979665,-0.083230324,-0.25961754,-0.051159926,0.1189636,-0.13943636,-0.8524871,-8.34375,-18.65625,-27.0375
1763129290799,-0.6861419,3.4612179,8.979665,-0.083230324,-0.25961754,-0.051159926,0.11633185,-0.13995174,-0.8531373,-8.34375,-18.65625,-27.0375
1763129290801,-0.6861419,3.4612179,8.979665,-0.083230324,-0.25961754,-0.051159926,0.11633185,-0.13995174,-0.8531373,-6.0,-15.993751,-25.3875
1763129290803,-0.78783685,3.324827,9.148359,-0.083230324,-0.25961754,-0.051159926,0.11633185,-0.13995174,-0.8531373,-6.0,-15.993751,-25.3875
1763129290819,-0.80578303,3.245864,9.111869,-0.083230324,-0.25961754,-0.051159926,0.11633185,-0.13995174,-0.8531373,-6.0,-15.993751,-25.3875
1763129290820,-0.80578303,3.245864,9.111869,-0.083383046,-0.17653993,-0.025503604,0.11633185,-0.13995174,-0.8531373,-6.0,-15.993751,-25.3875
1763129290821,-0.80578303,3.245864,9.111869,-0.083383046,-0.17653993,-0.025503604,0.11439775,-0.1400266,-0.85360277,-6.0,-15.993751,-25.3875
1763129290822,-0.80578303,3.245864,9.111869,-0.083383046,-0.17653993,-0.025503604,0.11439775,-0.1400266,-0.85360277,-8.45625,-19.63125,-25.9125
1763129290837,-0.80578303,3.245864,9.111869,-0.083383046,-0.17653993,-0.025503604,0.11439775,-0.1400266,-0.85360277,-7.5375004,-18.13125,-27.243752
1763129290839,-0.80578303,3.245864,9.111869,-0.07880156,-0.22220206,0.03375028,0.11439775,-0.1400266,-0.85360277,-7.5375004,-18.13125,-27.243752
1763129290840,-0.73579293,3.3128629,9.044869,-0.07880156,-0.22220206,0.03375028,0.11439775,-0.1400266,-0.85360277,-7.5375004,-18.13125,-27.243752
1763129290843,-0.73579293,3.3128629,9.044869,-0.07880156,-0.22220206,0.03375028,0.11191354,-0.14049776,-0.8541066,-7.5375004,-18.13125,-27.243752
1763129290858,-0.73579293,3.3128629,9.044869,-0.07880156,-0.22220206,0.03375028,0.11191354,-0.14049776,-0.8541066,-7.55625,-17.475,-24.69375
1763129290860,-0.73579293,3.3128629,9.044869,-0.07880156,-0.22220206,0.03375028,0.10907147,-0.1416493,-0.8543667,-7.55625,-17.475,-24.69375
1763129290862,-0.56829536,3.3852458,9.202796,-0.07880156,-0.22220206,0.03375028,0.10907147,-0.1416493,-0.8543667,-7.55625,-17.475,-24.69375
1763129290863,-0.56829536,3.3852458,9.202796,-0.04092794,-0.2837467,0.06093376,0.10907147,-0.1416493,-0.8543667,-7.55625,-17.475,-24.69375
1763129290878,-0.56829536,3.3852458,9.202796,-0.04092794,-0.2837467,0.06093376,0.10907147,-0.1416493,-0.8543667,-7.1062503,-17.04375,-24.375002
1763129290881,-0.56829536,3.3852458,9.202796,-0.0067195124,-0.18555018,0.045509428,0.10907147,-0.1416493,-0.8543667,-7.1062503,-17.04375,-24.375002
1763129290882,-0.56829536,3.3852458,9.202796,-0.0067195124,-0.18555018,0.045509428,0.10728275,-0.14260212,-0.8545199,-7.1062503,-17.04375,-24.375002
1763129290883,-0.51565325,3.3559337,9.325428,-0.0067195124,-0.18555018,0.045509428,0.10728275,-0.14260212,-0.8545199,-7.1062503,-17.04375,-24.375002
1763129290899,-0.51565325,3.3559337,9.325428,-0.0067195124,-0.18555018,0.045509428,0.10728275,-0.14260212,-0.8545199,-6.6937504,-17.1375,-26.493752
1763129290902,-0.4989035,3.3152559,9.065806,-0.0067195124,-0.18555018,0.045509428,0.10728275,-0.14260212,-0.8545199,-6.6937504,-17.1375,-26.493752
1763129290903,-0.4989035,3.3152559,9.065806,-0.0067195124,-0.18555018,0.045509428,0.10632594,-0.14296342,-0.85465556,-6.6937504,-17.1375,-26.493752
1763129290905,-0.4989035,3.3152559,9.065806,-0.014966187,-0.083993904,0.04382955,0.10632594,-0.14296342,-0.85465556,-6.6937504,-17.1375,-26.493752
1763129290918,-0.4989035,3.3152559,9.065806,-0.014966187,-0.083993904,0.04382955,0.10632594,-0.14296342,-0.85465556,-9.65625,-20.0625,-25.987501
1763129290923,-0.4989035,3.3152559,9.065806,-0.07192933,-0.09269873,0.053908817,0.10632594,-0.14296342,-0.85465556,-9.65625,-20.0625,-25.987501
1763129290924,-0.4989035,3.3152559,9.065806,-0.07192933,-0.09269873,0.053908817,0.10500296,-0.14287627,-0.85480535,-9.65625,-20.0625,-25.987501
1763129290925,-0.40977088,3.394817,8.923434,-0.07192933,-0.09269873,0.053908817,0.10500296,-0.14287627,-0.85480535,-9.65625,-20.0625,-25.987501
1763129290937,-0.40977088,3.394817,8.923434,-0.07192933,-0.09269873,0.053908817,0.10500296,-0.14287627,-0.85480535,-7.0125003,-16.725,-26.400002
1763129290944,-0.40977088,3.394817,8.923434,-0.07192933,-0.09269873,0.053908817,0.10266033,-0.14294995,-0.8548694,-7.0125003,-16.725,-26.400002
1763129290945,-0.34097722,3.4151561,9.025727,-0.07192933,-0.09269873,0.053908817,0.10266033,-0.14294995,-0.8548694,-7.0125003,-16.725,-26.400002
1763129290946,-0.34097722,3.4151561,9.025727,-0.11071924,-0.18509203,0.077121675,0.10266033,-0.14294995,-0.8548694,-7.0125003,-16.725,-26.400002
1763129290958,-0.34097722,3.4151561,9.025727,-0.11071924,-0.18509203,0.077121675,0.10266033,-0.14294995,-0.8548694,-9.28125,-18.525002,-25.837502
1763129290965,-0.34097722,3.4151561,9.025727,-0.06856957,-0.2319759,0.0736092,0.10266033,-0.14294995,-0.8548694,-9.28125,-18.525002,-25.837502
1763129290966,-0.13758731,3.5473595,9.255438,-0.06856957,-0.2319759,0.0736092,0.10266033,-0.14294995,-0.8548694,-9.28125,-18.525002,-25.837502
1763129290978,-0.13758731,3.5473595,9.255438,-0.06856957,-0.2319759,0.0736092,0.1000188,-0.14370508,-0.85524946,-9.28125,-18.525002,-25.837502
1763129290979,-0.13758731,3.5473595,9.255438,-0.06856957,-0.2319759,0.0736092,0.1000188,-0.14370508,-0.85524946,-9.28125,-18.675001,-24.581251
1763129290986,-0.13758731,3.5473595,9.255438,0.010690134,-0.13087778,0.01282816,0.1000188,-0.14370508,-0.85524946,-9.28125,-18.675001,-24.581251
1763129290988,-0.12143575,3.4779677,9.340384,0.010690134,-0.13087778,0.01282816,0.1000188,-0.14370508,-0.85524946,-9.28125,-18.675001,-24.581251
1763129290997,-0.12143575,3.4779677,9.340384,0.010690134,-0.13087778,0.01282816,0.09883374,-0.14455773,-0.85540885,-9.28125,-18.675001,-24.581251
1763129290998,-0.12143575,3.4779677,9.340384,0.010690134,-0.13087778,0.01282816,0.09883374,-0.14455773,-0.85540885,-9.243751,-18.69375,-25.931252
1763129291007,-0.12143575,3.4779677,9.340384,0.049480047,-0.0030543238,-0.010384701,0.09883374,-0.14455773,-0.85540885,-9.243751,-18.69375,-25.931252
1763129291008,-0.23150559,3.2943187,9.104092,0.049480047,-0.0030543238,-0.010384701,0.09883374,-0.14455773,-0.85540885,-9.243751,-18.69375,-25.931252
1763129291017,-0.23150559,3.2943187,9.104092,0.049480047,-0.0030543238,-0.010384701,0.09900335,-0.1450663,-0.85552925,-9.243751,-18.69375,-25.931252
1763129291018,-0.23150559,3.2943187,9.104092,0.049480047,-0.0030543238,-0.010384701,0.09900335,-0.1450663,-0.85552925,-9.731251,-17.34375,-25.518751
1763129291028,-0.23150559,3.2943187,9.104092,0.025045456,-0.028405212,0.025198173,0.09900335,-0.1450663,-0.85552925,-9.731251,-17.34375,-25.518751
1763129291029,-0.30927232,3.4025939,8.915657,0.025045456,-0.028405212,0.025198173,0.09900335,-0.1450663,-0.85552925,-9.731251,-17.34375,-25.518751
1763129291037,-0.30927232,3.4025939,8.915657,0.025045456,-0.028405212,0.025198173,0.09900335,-0.1450663,-0.85552925,-9.356251,-18.056252,-25.218752
1763129291050,-0.30927232,3.4025939,8.915657,-0.03497201,-0.07513637,0.04138609,0.09900335,-0.1450663,-0.85552925,-9.356251,-18.056252,-25.218752
1763129291051,-0.2009971,3.4827533,8.900104,-0.03497201,-0.07513637,0.04138609,0.09900335,-0.1450663,-0.85552925,-9.356251,-18.056252,-25.218752
1763129291058,-0.2009971,3.4827533,8.900104,-0.03497201,-0.07513637,0.04138609,0.0986476,-0.14548191,-0.8557287,-9.356251,-18.056252,-25.218752
1763129291059,-0.2009971,3.4827533,8.900104,-0.03497201,-0.07513637,0.04138609,0.09802043,-0.1456586,-0.8553247,-9.356251,-18.056252,-25.218752
1763129291061,-0.2009971,3.4827533,8.900104,-0.03497201,-0.07513637,0.04138609,0.09802043,-0.1456586,-0.8553247,-9.84375,-18.975,-25.875002
1763129291070,-0.2009971,3.4827533,8.900104,-0.08659008,-0.08277218,0.022143848,0.09802043,-0.1456586,-0.8553247,-9.84375,-18.975,-25.875002
1763129291071,-0.17108682,3.463611,9.052647,-0.08659008,-0.08277218,0.022143848,0.09802043,-0.1456586,-0.8553247,-9.84375,-18.975,-25.875002
1763129291077,-0.17108682,3.463611,9.052647,-0.08659008,-0.08277218,0.022143848,0.09802043,-0.1456586,-0.8553247,-9.46875,-17.587502,-23.868752
1763129291080,-0.17108682,3.463611,9.052647,-0.08659008,-0.08277218,0.022143848,0.097107366,-0.14555949,-0.8548196,-9.46875,-17.587502,-23.868752
1763129291092,-0.17108682,3.463611,9.052647,-0.09483676,-0.037568185,-0.005497783,0.097107366,-0.14555949,-0.8548196,-9.46875,-17.587502,-23.868752
1763129291093,-0.17108682,3.367898,9.12802,-0.09483676,-0.037568185,-0.005497783,0.097107366,-0.14555949,-0.8548196,-9.46875,-17.587502,-23.868752
1763129291098,-0.17108682,3.367898,9.12802,-0.09483676,-0.037568185,-0.005497783,0.0964147,-0.14512949,-0.85476434,-9.46875,-17.587502,-23.868752
1763129291099,-0.17108682,3.367898,9.12802,-0.09483676,-0.037568185,-0.005497783,0.0964147,-0.14512949,-0.85476434,-10.275001,-18.75,-25.312502
1763129291112,-0.17108682,3.367898,9.12802,-0.07269291,-0.0010690134,-0.018936807,0.0964147,-0.14512949,-0.85476434,-10.275001,-18.75,-25.312502
1763129291113,-0.27936205,3.2638102,9.159725,-0.07269291,-0.0010690134,-0.018936807,0.0964147,-0.14512949,-0.85476434,-10.275001,-18.75,-25.312502
1763129291117,-0.27936205,3.2638102,9.159725,-0.07269291,-0.0010690134,-0.018936807,0.09600969,-0.1445992,-0.85501635,-10.275001,-18.75,-25.312502
1763129291119,-0.27936205,3.2638102,9.159725,-0.07269291,-0.0010690134,-0.018936807,0.09600969,-0.1445992,-0.85501635,-9.900001,-18.675001,-25.987501
1763129291134,-0.27936205,3.2638102,9.159725,-0.04703659,0.04046979,-0.007941242,0.09600969,-0.1445992,-0.85501635,-9.900001,-18.675001,-25.987501
1763129291136,-0.40857446,3.1746774,9.186645,-0.04703659,0.04046979,-0.007941242,0.09600969,-0.1445992,-0.85501635,-9.900001,-18.675001,-25.987501
1763129291139,-0.40857446,3.1746774,9.186645,-0.04703659,0.04046979,-0.007941242,0.09607282,-0.14391904,-0.85545313,-9.900001,-18.675001,-25.987501
1763129291140,-0.40857446,3.1746774,9.186645,-0.04703659,0.04046979,-0.007941242,0.09607282,-0.14391904,-0.85545313,-10.51875,-18.806252,-25.368752
1763129291154,-0.36370903,3.2398818,9.120243,-0.04703659,0.04046979,-0.007941242,0.09607282,-0.14391904,-0.85545313,-10.51875,-18.806252,-25.368752
1763129291155,-0.36370903,3.2398818,9.120243,-0.030390523,0.016798781,0.025809037,0.09607282,-0.14391904,-0.85545313,-10.51875,-18.806252,-25.368752
1763129291158,-0.36370903,3.2398818,9.120243,-0.030390523,0.016798781,0.025809037,0.09609424,-0.14329693,-0.85567516,-10.51875,-18.806252,-25.368752
1763129291159,-0.36370903,3.2398818,9.120243,-0.030390523,0.016798781,0.025809037,0.09609424,-0.14329693,-0.85567516,-10.087501,-19.050001,-26.400002
1763129291176,-0.36370903,3.2398818,9.120243,-0.021532983,-0.01924224,0.022754714,0.09609424,-0.14329693,-0.85567516,-10.087501,-19.050001,-26.400002
1763129291177,-0.22013968,3.3702908,9.208778,-0.021532983,-0.01924224,0.022754714,0.09609424,-0.14329693,-0.85567516,-10.087501,-19.050001,-26.400002
1763129291179,-0.22013968,3.3702908,9.208778,-0.021532983,-0.01924224,0.022754714,0.095900975,-0.14307703,-0.85575014,-10.087501,-19.050001,-26.400002
1763129291181,-0.22013968,3.3702908,9.208778,-0.021532983,-0.01924224,0.022754714,0.095900975,-0.14307703,-0.85575014,-8.137501,-17.625,-26.643751
1763129291196,-0.22013968,3.3702908,9.208778,-0.024587307,0.00962112,3.054324E-4,0.095900975,-0.14307703,-0.85575014,-8.137501,-17.625,-26.643751
1763129291198,-0.25842485,3.2620156,9.223733,-0.024587307,0.00962112,3.054324E-4,0.095900975,-0.14307703,-0.85575014,-8.137501,-17.625,-26.643751
1763129291199,-0.25842485,3.2620156,9.223733,-0.024587307,0.00962112,3.054324E-4,0.09585267,-0.14292921,-0.8558447,-8.137501,-17.625,-26.643751
1763129291201,-0.25842485,3.2620156,9.223733,-0.024587307,0.00962112,3.054324E-4,0.09585267,-0.14292921,-0.8558447,-10.106251,-19.03125,-24.13125
1763129291219,-0.25842485,3.2620156,9.223733,-0.024587307,0.00962112,3.054324E-4,0.0958406,-0.14244477,-0.8561221,-10.106251,-19.03125,-24.13125
1763129291220,-0.31944183,3.2859437,9.142377,-0.024587307,0.00962112,3.054324E-4,0.0958406,-0.14244477,-0.8561221,-10.106251,-19.03125,-24.13125
1763129291221,-0.31944183,3.2859437,9.142377,-0.03497201,0.031459536,0.008093959,0.0958406,-0.14244477,-0.8561221,-10.106251,-19.03125,-24.13125
1763129291222,-0.31944183,3.2859437,9.142377,-0.03497201,0.031459536,0.008093959,0.0958406,-0.14244477,-0.8561221,-9.5625,-18.28125,-26.1375
1763129291239,-0.31944183,3.2859437,9.142377,-0.03497201,0.031459536,0.008093959,0.0958406,-0.14244477,-0.8561221,-9.13125,-17.71875,-27.525002
1763129291240,-0.31944183,3.2859437,9.142377,-0.06169734,1.527162E-4,0.023976443,0.0958406,-0.14244477,-0.8561221,-9.13125,-17.71875,-27.525002
1763129291241,-0.31944183,3.2859437,9.142377,-0.06169734,1.527162E-4,0.023976443,0.095590085,-0.14189969,-0.8561939,-9.13125,-17.71875,-27.525002
1763129291242,-0.24586253,3.3260236,9.108279,-0.06169734,1.527162E-4,0.023976443,0.095590085,-0.14189969,-0.8561939,-9.13125,-17.71875,-27.525002
1763129291258,-0.24586253,3.3260236,9.108279,-0.06169734,1.527162E-4,0.023976443,0.095590085,-0.14189969,-0.8561939,-9.75,-17.34375,-24.468752
1763129291259,-0.24586253,3.3260236,9.108279,-0.06169734,1.527162E-4,0.023976443,0.09525386,-0.1413743,-0.8560423,-9.75,-17.34375,-24.468752
1763129291260,-0.24586253,3.3260236,9.108279,-0.074067354,-0.0018325944,0.028710645,0.09525386,-0.1413743,-0.8560423,-9.75,-17.34375,-24.468752
1763129291261,-0.124426775,3.37388,9.166306,-0.074067354,-0.0018325944,0.028710645,0.09525386,-0.1413743,-0.8560423,-9.75,-17.34375,-24.468752
1763129291277,-0.124426775,3.37388,9.166306,-0.074067354,-0.0018325944,0.028710645,0.09525386,-0.1413743,-0.8560423,-9.4125,-17.75625,-25.331251
1763129291279,-0.124426775,3.37388,9.166306,-0.049938194,0.005497783,0.008857539,0.09525386,-0.1413743,-0.8560423,-9.4125,-17.75625,-25.331251
1763129291281,-0.124426775,3.37388,9.166306,-0.049938194,0.005497783,0.008857539,0.09493667,-0.14119272,-0.8560849,-9.4125,-17.75625,-25.331251
1763129291282,-0.12143575,3.3846476,9.215957,-0.049938194,0.005497783,0.008857539,0.09493667,-0.14119272,-0.8560849,-9.4125,-17.75625,-25.331251
1763129291298,-0.12143575,3.3846476,9.215957,-0.049938194,0.005497783,0.008857539,0.09493667,-0.14119272,-0.8560849,-11.34375,-20.625,-26.79375
1763129291302,-0.12143575,3.3846476,9.215957,-0.018936807,0.011300999,0.003970621,0.09493667,-0.14119272,-0.8560849,-11.34375,-20.625,-26.79375
1763129291303,-0.12143575,3.3846476,9.215957,-0.018936807,0.011300999,0.003970621,0.09480558,-0.14126287,-0.8561857,-11.34375,-20.625,-26.79375
1763129291305,-0.1788635,3.3565319,9.258429,-0.018936807,0.011300999,0.003970621,0.09480558,-0.14126287,-0.8561857,-11.34375,-20.625,-26.79375
1763129291318,-0.1788635,3.3565319,9.258429,-0.018936807,0.011300999,0.003970621,0.09480558,-0.14126287,-0.8561857,-9.7875,-17.85,-25.406252
1763129291322,-0.1788635,3.3565319,9.258429,-0.006872229,0.035124727,-0.0140498895,0.09480558,-0.14126287,-0.8561857,-9.7875,-17.85,-25.406252
1763129291323,-0.1788635,3.3565319,9.258429,-0.006872229,0.035124727,-0.0140498895,0.0950192,-0.14119318,-0.85634905,-9.7875,-17.85,-25.406252
1763129291325,-0.13399807,3.399603,9.221938,-0.006872229,0.035124727,-0.0140498895,0.0950192,-0.14119318,-0.85634905,-9.7875,-17.85,-25.406252
1763129291338,-0.13399807,3.399603,9.221938,-0.006872229,0.035124727,-0.0140498895,0.0950192,-0.14119318,-0.85634905,-9.13125,-17.85,-26.118752
1763129291344,-0.13399807,3.399603,9.221938,-0.006872229,0.035124727,-0.0140498895,0.09514988,-0.14104308,-0.85635567,-9.13125,-17.85,-26.118752
1763129291345,-0.13399807,3.399603,9.221938,-0.026267186,0.032375835,-0.020005822,0.09514988,-0.14104308,-0.85635567,-9.13125,-17.85,-26.118752
1763129291347,-0.26620153,3.2650065,9.096315,-0.026267186,0.032375835,-0.020005822,0.09514988,-0.14104308,-0.85635567,-9.13125,-17.85,-26.118752
1763129291357,-0.26620153,3.2650065,9.096315,-0.026267186,0.032375835,-0.020005822,0.09514988,-0.14104308,-0.85635567,-9.9375,-16.9125,-25.556252
1763129291363,-0.26620153,3.2650065,9.096315,-0.026267186,0.032375835,-0.020005822,0.09506217,-0.14024925,-0.8564944,-9.9375,-16.9125,-25.556252
1763129291365,-0.357727,3.176472,9.035298,-0.026267186,0.032375835,-0.020005822,0.09506217,-0.14024925,-0.8564944,-9.9375,-16.9125,-25.556252
1763129291367,-0.357727,3.176472,9.035298,-0.07895427,0.027030766,-0.009468404,0.09506217,-0.14024925,-0.8564944,-9.9375,-16.9125,-25.556252
1763129291378,-0.357727,3.176472,9.035298,-0.07895427,0.027030766,-0.009468404,0.09506217,-0.14024925,-0.8564944,-8.306251,-17.493752,-25.81875
1763129291385,-0.2745764,3.245864,9.293723,-0.07895427,0.027030766,-0.009468404,0.09506217,-0.14024925,-0.8564944,-8.306251,-17.493752,-25.81875
1763129291386,-0.2745764,3.245864,9.293723,-0.15164718,0.014813471,-0.0016798781,0.09506217,-0.14024925,-0.8564944,-8.306251,-17.493752,-25.81875
1763129291387,-0.2745764,3.245864,9.293723,-0.15164718,0.014813471,-0.0016798781,0.094592795,-0.13874263,-0.85670704,-8.306251,-17.493752,-25.81875
1763129291398,-0.2745764,3.245864,9.293723,-0.15164718,0.014813471,-0.0016798781,0.094592795,-0.13874263,-0.85670704,-9.150001,-17.04375,-25.275002
1763129291406,-0.2745764,3.245864,9.293723,-0.1432478,-0.010690134,0.020311253,0.094592795,-0.13874263,-0.85670704,-9.150001,-17.04375,-25.275002
1763129291407,-0.37328035,3.2434711,9.4229355,-0.1432478,-0.010690134,0.020311253,0.094592795,-0.13874263,-0.85670704,-9.150001,-17.04375,-25.275002
1763129291419,-0.37328035,3.2434711,9.4229355,-0.1432478,-0.010690134,0.020311253,0.09369487,-0.13760929,-0.85710746,-9.150001,-17.04375,-25.275002
1763129291420,-0.37328035,3.2434711,9.4229355,-0.1432478,-0.010690134,0.020311253,0.09369487,-0.13760929,-0.85710746,-9.76875,-17.85,-25.85625
1763129291427,-0.37328035,3.2434711,9.4229355,0.33001968,0.39568767,-0.14966187,0.09369487,-0.13760929,-0.85710746,-9.76875,-17.85,-25.85625
1763129291428,-0.16091733,3.257828,10.41835,0.33001968,0.39568767,-0.14966187,0.09369487,-0.13760929,-0.85710746,-9.76875,-17.85,-25.85625
1763129291437,-0.16091733,3.257828,10.41835,0.33001968,0.39568767,-0.14966187,0.09899842,-0.13833967,-0.8574275,-9.76875,-17.85,-25.85625
1763129291438,-0.16091733,3.257828,10.41835,0.33001968,0.39568767,-0.14966187,0.09899842,-0.13833967,-0.8574275,-10.21875,-18.2625,-25.875002
1763129291447,-0.16091733,3.257828,10.41835,0.8304707,0.52671814,-0.19837834,0.09899842,-0.13833967,-0.8574275,-10.21875,-18.2625,-25.875002
1763129291448,-0.6975078,2.9796624,9.643075,0.8304707,0.52671814,-0.19837834,0.09899842,-0.13833967,-0.8574275,-10.21875,-18.2625,-25.875002
1763129291459,-0.6975078,2.9796624,9.643075,0.8304707,0.52671814,-0.19837834,0.10652817,-0.14288275,-0.85917795,-10.21875,-18.2625,-25.875002
1763129291460,-0.6975078,2.9796624,9.643075,0.8304707,0.52671814,-0.19837834,0.10652817,-0.14288275,-0.85917795,-9.84375,-18.993752,-26.325
1763129291469,-0.6975078,2.9796624,9.643075,0.74128443,0.31948227,-0.07437278,0.10652817,-0.14288275,-0.85917795,-9.84375,-18.993752,-26.325
1763129291470,-0.92662054,3.49053,8.212168,0.74128443,0.31948227,-0.07437278,0.10652817,-0.14288275,-0.85917795,-9.84375,-18.993752,-26.325
1763129291478,-0.92662054,3.49053,8.212168,0.74128443,0.31948227,-0.07437278,0.11231635,-0.14712763,-0.86014795,-9.84375,-18.993752,-26.325
1763129291479,-0.92662054,3.49053,8.212168,0.74128443,0.31948227,-0.07437278,0.11231635,-0.14712763,-0.86014795,-9.65625,-19.275002,-27.2625
1763129291491,-0.92662054,3.49053,8.212168,0.06811142,-0.13942988,0.024740024,0.11231635,-0.14712763,-0.86014795,-9.65625,-19.275002,-27.2625
1763129291492,-1.1102697,3.5413775,7.483553,0.06811142,-0.13942988,0.024740024,0.11231635,-0.14712763,-0.86014795,-9.65625,-19.275002,-27.2625
1763129291501,-1.1102697,3.5413775,7.483553,0.06811142,-0.13942988,0.024740024,0.11271573,-0.14816464,-0.8586801,-9.65625,-19.275002,-27.2625
1763129291502,-1.1102697,3.5413775,7.483553,0.06811142,-0.13942988,0.024740024,0.11271573,-0.14816464,-0.8586801,-6.39375,-16.575,-26.250002
1763129291511,-1.1102697,3.5413775,7.483553,-0.74724036,-0.5732966,0.22266021,0.11271573,-0.14816464,-0.8586801,-6.39375,-16.575,-26.250002
1763129291512,-0.8644072,2.9401808,7.685746,-0.74724036,-0.5732966,0.22266021,0.11271573,-0.14816464,-0.8586801,-6.39375,-16.575,-26.250002
1763129291517,-0.8644072,2.9401808,7.685746,-0.74724036,-0.5732966,0.22266021,0.10609911,-0.14430013,-0.8562645,-6.39375,-16.575,-26.250002
1763129291518,-0.8644072,2.9401808,7.685746,-0.74724036,-0.5732966,0.22266021,0.10609911,-0.14430013,-0.8562645,-8.64375,-18.54375,-25.500002
1763129291540,-0.8644072,2.9401808,7.685746,-1.0432043,-0.7531963,0.34070984,0.10609911,-0.14430013,-0.8562645,-8.64375,-18.54375,-25.500002
1763129291541,-0.3397808,2.9850461,8.836096,-1.0432043,-0.7531963,0.34070984,0.10609911,-0.14430013,-0.8562645,-8.64375,-18.54375,-25.500002
1763129291542,-0.3397808,2.9850461,8.836096,-1.0432043,-0.7531963,0.34070984,0.10609911,-0.14430013,-0.8562645,-10.44375,-18.487501,-25.743752
