timestamp,accX,accY,accZ,gyroX,gyroY,gyroZ,rotX,rotY,rotZ,magX,magY,magZ
1763129262838,-2.7409782,8.6345005,2.5471597,0.05054906,-1.586874,-0.31093016,0.47088996,-0.26800823,-0.61139506,14.475,-33.16875,-27.7875
1763129262838,-2.932404,8.260024,2.6309085,0.05054906,-1.586874,-0.31093016,0.47088996,-0.26800823,-0.61139506,14.475,-33.16875,-27.7875
1763129262838,-2.932404,8.260024,2.6309085,0.05054906,-1.586874,-0.31093016,0.463254,-0.27458236,-0.61839014,14.475,-33.16875,-27.7875
1763129262839,-2.932404,8.260024,2.6309085,0.05054906,-1.586874,-0.31093016,0.463254,-0.27458236,-0.61839014,13.181251,-33.131252,-26.962502
1763129262871,-2.6578279,8.473583,2.8319056,0.05054906,-1.586874,-0.31093016,0.463254,-0.27458236,-0.61839014,13.181251,-33.131252,-26.962502
1763129262872,-2.6578279,8.473583,2.8319056,0.05054906,-1.586874,-0.31093016,0.45297512,-0.28072762,-0.62634337,13.181251,-33.131252,-26.962502
1763129262873,-2.6578279,8.473583,2.8319056,-0.19776747,-1.7040073,-0.23319763,0.45297512,-0.28072762,-0.62634337,13.181251,-33.131252,-26.962502
1763129262873,-2.6578279,8.473583,2.8319056,-0.19776747,-1.7040073,-0.23319763,0.45297512,-0.28072762,-0.62634337,9.825001,-33.09375,-24.7875
1763129262879,-2.6578279,8.473583,2.8319056,-0.19776747,-1.7040073,-0.23319763,0.43918136,-0.28484523,-0.635554,9.825001,-33.09375,-24.7875
1763129262880,-2.6578279,8.473583,2.8319056,-0.6261364,-1.8322889,-0.20326525,0.43918136,-0.28484523,-0.635554,9.825001,-33.09375,-24.7875
1763129262880,-2.6578279,8.473583,2.8319056,-0.6261364,-1.8322889,-0.20326525,0.43918136,-0.28484523,-0.635554,13.387501,-32.775,-27.468752
1763129262880,-2.4149563,8.078169,2.7822545,-0.6261364,-1.8322889,-0.20326525,0.43918136,-0.28484523,-0.635554,13.387501,-32.775,-27.468752
1763129262897,-2.4149563,8.078169,2.7822545,-0.6261364,-1.8322889,-0.20326525,0.43918136,-0.28484523,-0.635554,3.8812501,-36.5625,-25.48125
1763129262899,-2.4149563,8.078169,2.7822545,-1.0981822,-2.2977679,-0.108123064,0.43918136,-0.28484523,-0.635554,3.8812501,-36.5625,-25.48125
1763129262899,-2.4149563,8.078169,2.7822545,-1.0981822,-2.2977679,-0.108123064,0.419132,-0.2888477,-0.6471682,3.8812501,-36.5625,-25.48125
1763129262900,-2.085345,7.6683984,2.2701905,-1.0981822,-2.2977679,-0.108123064,0.419132,-0.2888477,-0.6471682,3.8812501,-36.5625,-25.48125
1763129262917,-2.085345,7.6683984,2.2701905,-1.0981822,-2.2977679,-0.108123064,0.419132,-0.2888477,-0.6471682,4.74375,-34.912502,-24.900002
1763129262920,-2.085345,7.6683984,2.2701905,-1.5193734,-2.8182247,0.005497783,0.419132,-0.2888477,-0.6471682,4.74375,-34.912502,-24.900002
1763129262921,-2.085345,7.6683984,2.2701905,-1.5193734,-2.8182247,0.005497783,0.39295173,-0.2929726,-0.6600931,4.74375,-34.912502,-24.900002
1763129262921,-1.6450655,7.923234,3.306881,-1.5193734,-2.8182247,0.005497783,0.39295173,-0.2929726,-0.6600931,4.74375,-34.912502,-24.900002
1763129262939,-1.6450655,7.923234,3.306881,-1.5193734,-2.8182247,0.005497783,0.39295173,-0.2929726,-0.6600931,6.5062504,-33.581253,-29.268751
1763129262941,-1.6450655,7.923234,3.306881,-1.7244713,-2.530049,0.06856957,0.39295173,-0.2929726,-0.6600931,6.5062504,-33.581253,-29.268751
1763129262943,-1.6450655,7.923234,3.306881,-1.7244713,-2.530049,0.06856957,0.36653984,-0.29464602,-0.6720555,6.5062504,-33.581253,-29.268751
1763129262943,-1.1072787,8.176873,5.7397833,-1.7244713,-2.530049,0.06856957,0.36653984,-0.29464602,-0.6720555,6.5062504,-33.581253,-29.268751
1763129262958,-1.1072787,8.176873,5.7397833,-1.7244713,-2.530049,0.06856957,0.36653984,-0.29464602,-0.6720555,3.4125001,-34.143753,-29.1375
1763129262962,-1.1072787,8.176873,5.7397833,-1.6142101,-1.9569054,0.11133011,0.36653984,-0.29464602,-0.6720555,3.4125001,-34.143753,-29.1375
1763129262963,-1.1072787,8.176873,5.7397833,-1.6142101,-1.9569054,0.11133011,0.34278727,-0.29516506,-0.6832458,3.4125001,-34.143753,-29.1375
1763129262964,-0.22851457,7.5260253,6.81775,-1.6142101,-1.9569054,0.11133011,0.34278727,-0.29516506,-0.6832458,3.4125001,-34.143753,-29.1375
1763129262977,-0.22851457,7.5260253,6.81775,-1.6142101,-1.9569054,0.11133011,0.34278727,-0.29516506,-0.6832458,0.01875,-35.550003,-26.437502
1763129262984,-0.22851457,7.5260253,6.81775,-1.6142101,-1.9569054,0.11133011,0.3241166,-0.2950143,-0.69312835,0.01875,-35.550003,-26.437502
1763129262985,-0.22851457,7.5260253,6.81775,-1.2867867,-1.3680316,0.0368046,0.3241166,-0.2950143,-0.69312835,0.01875,-35.550003,-26.437502
1763129262986,0.18544376,7.2083783,7.5786676,-1.2867867,-1.3680316,0.0368046,0.3241166,-0.2950143,-0.69312835,0.01875,-35.550003,-26.437502
1763129262997,0.18544376,7.2083783,7.5786676,-1.2867867,-1.3680316,0.0368046,0.3241166,-0.2950143,-0.69312835,1.66875,-30.525002,-29.1
1763129263004,0.18544376,7.2083783,7.5786676,-0.8362739,-1.05252,-0.037262753,0.3241166,-0.2950143,-0.69312835,1.66875,-30.525002,-29.1
1763129263005,0.18544376,7.2083783,7.5786676,-0.8362739,-1.05252,-0.037262753,0.3098773,-0.2963618,-0.7018718,1.66875,-30.525002,-29.1
1763129263007,-0.19501504,7.4446692,7.7994056,-0.8362739,-1.05252,-0.037262753,0.3098773,-0.2963618,-0.7018718,1.66875,-30.525002,-29.1
1763129263018,-0.19501504,7.4446692,7.7994056,-0.8362739,-1.05252,-0.037262753,0.3098773,-0.2963618,-0.7018718,-0.01875,-29.643751,-29.681252
1763129263025,-0.19501504,7.4446692,7.7994056,-0.4978548,-0.7938188,-0.046883874,0.3098773,-0.2963618,-0.7018718,-0.01875,-29.643751,-29.681252
1763129263027,-0.89312106,7.3926253,7.312466,-0.4978548,-0.7938188,-0.046883874,0.3098773,-0.2963618,-0.7018718,-0.01875,-29.643751,-29.681252
1763129263038,-0.89312106,7.3926253,7.312466,-0.4978548,-0.7938188,-0.046883874,0.29977635,-0.2982883,-0.7083993,-0.01875,-29.643751,-29.681252
1763129263039,-0.89312106,7.3926253,7.312466,-0.4978548,-0.7938188,-0.046883874,0.29977635,-0.2982883,-0.7083993,-2.3625002,-32.71875,-26.5125
1763129263046,-1.5391831,7.105487,6.827321,-0.4978548,-0.7938188,-0.046883874,0.29977635,-0.2982883,-0.7083993,-2.3625002,-32.71875,-26.5125
1763129263047,-1.5391831,7.105487,6.827321,-0.48517936,-0.5707004,0.08659008,0.29977635,-0.2982883,-0.7083993,-2.3625002,-32.71875,-26.5125
1763129263057,-1.5391831,7.105487,6.827321,-0.48517936,-0.5707004,0.08659008,0.29169452,-0.2987636,-0.71235764,-2.3625002,-32.71875,-26.5125
1763129263058,-1.5391831,7.105487,6.827321,-0.48517936,-0.5707004,0.08659008,0.29169452,-0.2987636,-0.71235764,-2.0625,-32.831253,-28.368752
1763129263067,-1.5391831,7.105487,6.827321,-0.66523176,-0.43524116,0.2921461,0.29169452,-0.2987636,-0.71235764,-2.0625,-32.831253,-28.368752
1763129263068,-1.5044873,7.1772714,6.580262,-0.66523176,-0.43524116,0.2921461,0.29169452,-0.2987636,-0.71235764,-2.0625,-32.831253,-28.368752
1763129263077,-1.5044873,7.1772714,6.580262,-0.66523176,-0.43524116,0.2921461,0.2834937,-0.29721564,-0.71444577,-2.0625,-32.831253,-28.368752
1763129263077,-1.5044873,7.1772714,6.580262,-0.66523176,-0.43524116,0.2921461,0.2834937,-0.29721564,-0.71444577,-3.5812502,-30.750002,-26.343752
1763129263089,-1.5044873,7.1772714,6.580262,-0.8162681,-0.42699447,0.39858928,0.2834937,-0.29721564,-0.71444577,-3.5812502,-30.750002,-26.343752
1763129263090,-0.80578303,7.492526,6.81775,-0.8162681,-0.42699447,0.39858928,0.2834937,-0.29721564,-0.71444577,-3.5812502,-30.750002,-26.343752
1763129263098,-0.80578303,7.492526,6.81775,-0.8162681,-0.42699447,0.39858928,0.27452698,-0.29450017,-0.71557665,-3.5812502,-30.750002,-26.343752
1763129263098,-0.80578303,7.492526,6.81775,-0.8162681,-0.42699447,0.39858928,0.27452698,-0.29450017,-0.71557665,-10.21875,-35.943752,-20.56875
1763129263109,-0.80578303,7.492526,6.81775,-0.79152805,-0.46120292,0.29550585,0.27452698,-0.29450017,-0.71557665,-10.21875,-35.943752,-20.56875
1763129263110,-0.13399807,7.542177,7.2903323,-0.79152805,-0.46120292,0.29550585,0.27452698,-0.29450017,-0.71557665,-10.21875,-35.943752,-20.56875
1763129263118,-0.13399807,7.542177,7.2903323,-0.79152805,-0.46120292,0.29550585,0.26572785,-0.29192805,-0.7170775,-10.21875,-35.943752,-20.56875
1763129263118,-0.13399807,7.542177,7.2903323,-0.79152805,-0.46120292,0.29550585,0.26572785,-0.29192805,-0.7170775,-10.40625,-31.650002,-20.85
1763129263130,-0.13399807,7.542177,7.2903323,-0.6146827,-0.34055713,0.10155627,0.26572785,-0.29192805,-0.7170775,-10.40625,-31.650002,-20.85
1763129263130,-0.061016977,7.0863442,7.9070826,-0.6146827,-0.34055713,0.10155627,0.26572785,-0.29192805,-0.7170775,-10.40625,-31.650002,-20.85
1763129263137,-0.061016977,7.0863442,7.9070826,-0.6146827,-0.34055713,0.10155627,0.25909182,-0.28968805,-0.71926993,-10.40625,-31.650002,-20.85
1763129263138,-0.061016977,7.0863442,7.9070826,-0.6146827,-0.34055713,0.10155627,0.25909182,-0.28968805,-0.71926993,-13.406251,-37.631252,-20.15625
1763129263151,-0.061016977,7.0863442,7.9070826,-0.3434587,-0.12370012,-0.006261364,0.25909182,-0.28968805,-0.71926993,-13.406251,-37.631252,-20.15625
1763129263152,-0.27098715,6.734599,8.092526,-0.3434587,-0.12370012,-0.006261364,0.25909182,-0.28968805,-0.71926993,-13.406251,-37.631252,-20.15625
1763129263157,-0.27098715,6.734599,8.092526,-0.3434587,-0.12370012,-0.006261364,0.25537834,-0.28826082,-0.7218421,-13.406251,-37.631252,-20.15625
1763129263157,-0.27098715,6.734599,8.092526,-0.3434587,-0.12370012,-0.006261364,0.25537834,-0.28826082,-0.7218421,-10.89375,-34.0125,-22.181252
1763129263172,-0.27098715,6.734599,8.092526,-0.074067354,0.031459536,-0.0050396346,0.25537834,-0.28826082,-0.7218421,-10.89375,-34.0125,-22.181252
1763129263173,-0.36550367,6.750751,7.256833,-0.074067354,0.031459536,-0.0050396346,0.25537834,-0.28826082,-0.7218421,-10.89375,-34.0125,-22.181252
1763129263177,-0.36550367,6.750751,7.256833,-0.074067354,0.031459536,-0.0050396346,0.25419515,-0.28805616,-0.72371477,-10.89375,-34.0125,-22.181252
1763129263179,-0.36550367,6.750751,7.256833,-0.074067354,0.031459536,-0.0050396346,0.25419515,-0.28805616,-0.72371477,-12.637501,-33.24375,-16.6875
1763129263193,-0.36550367,6.750751,7.256833,0.056810424,-0.07238748,-0.0058032153,0.25419515,-0.28805616,-0.72371477,-12.637501,-33.24375,-16.6875
1763129263193,-0.32662028,7.1449685,6.3200426,0.056810424,-0.07238748,-0.0058032153,0.25419515,-0.28805616,-0.72371477,-12.637501,-33.24375,-16.6875
1763129263198,-0.32662028,7.1449685,6.3200426,0.056810424,-0.07238748,-0.0058032153,0.25362897,-0.28911367,-0.72442925,-12.637501,-33.24375,-16.6875
1763129263198,-0.32662028,7.1449685,6.3200426,0.056810424,-0.07238748,-0.0058032153,0.25362897,-0.28911367,-0.72442925,-7.55625,-30.206251,-22.66875
1763129263214,-0.32662028,7.1449685,6.3200426,0.0377209,-0.30207264,-0.021838415,0.25362897,-0.28911367,-0.72442925,-7.55625,-30.206251,-22.66875
1763129263215,-0.27158538,7.3459654,5.9264235,0.0377209,-0.30207264,-0.021838415,0.25362897,-0.28911367,-0.72442925,-7.55625,-30.206251,-22.66875
1763129263218,-0.27158538,7.3459654,5.9264235,0.0377209,-0.30207264,-0.021838415,0.25215143,-0.29086936,-0.724334,-7.55625,-30.206251,-22.66875
1763129263219,-0.27158538,7.3459654,5.9264235,0.0377209,-0.30207264,-0.021838415,0.25215143,-0.29086936,-0.724334,-8.137501,-30.35625,-24.618752
1763129263235,-0.27158538,7.3459654,5.9264235,-0.14187334,-0.3666716,-0.055435978,0.25215143,-0.29086936,-0.724334,-8.137501,-30.35625,-24.618752
1763129263236,-0.21355942,7.115058,5.9294147,-0.14187334,-0.3666716,-0.055435978,0.25215143,-0.29086936,-0.724334,-8.137501,-30.35625,-24.618752
1763129263238,-0.21355942,7.115058,5.9294147,-0.14187334,-0.3666716,-0.055435978,0.24963589,-0.2913357,-0.7244051,-8.137501,-30.35625,-24.618752
1763129263239,-0.21355942,7.115058,5.9294147,-0.14187334,-0.3666716,-0.055435978,0.24963589,-0.2913357,-0.7244051,-8.45625,-31.556252,-25.143751
1763129263256,-0.21355942,7.115058,5.9294147,-0.42378744,-0.3263545,-0.03848448,0.24963589,-0.2913357,-0.7244051,-8.45625,-31.556252,-25.143751
1763129263257,-0.17228323,6.96431,5.985048,-0.42378744,-0.3263545,-0.03848448,0.24963589,-0.2913357,-0.7244051,-8.45625,-31.556252,-25.143751
1763129263259,-0.17228323,6.96431,5.985048,-0.42378744,-0.3263545,-0.03848448,0.24558593,-0.28951967,-0.7252616,-8.45625,-31.556252,-25.143751
1763129263260,-0.17228323,6.96431,5.985048,-0.42378744,-0.3263545,-0.03848448,0.24558593,-0.28951967,-0.7252616,-3.05625,-29.04375,-28.7625
1763129263278,-0.17228323,6.96431,5.985048,-0.5700896,-0.3045161,-0.0010690134,0.24558593,-0.28951967,-0.7252616,-3.05625,-29.04375,-28.7625
1763129263280,-0.28414768,6.9451675,6.385247,-0.5700896,-0.3045161,-0.0010690134,0.24558593,-0.28951967,-0.7252616,-3.05625,-29.04375,-28.7625
1763129263283,-0.28414768,6.9451675,6.385247,-0.5700896,-0.3045161,-0.0010690134,0.24064948,-0.28658685,-0.7263147,-3.05625,-29.04375,-28.7625
1763129263284,-0.28414768,6.9451675,6.385247,-0.5700896,-0.3045161,-0.0010690134,0.24064948,-0.28658685,-0.7263147,-5.34375,-29.250002,-27.712502
1763129263298,-0.28414768,6.9451675,6.385247,-0.54519683,-0.3741547,0.025809037,0.24064948,-0.28658685,-0.7263147,-5.34375,-29.250002,-27.712502
1763129263299,-0.28414768,6.9451675,6.385247,-0.54519683,-0.3741547,0.025809037,0.24064948,-0.28658685,-0.7263147,-5.34375,-29.250002,-27.712502
1763129263299,-0.2757728,6.706484,6.573682,-0.54519683,-0.3741547,0.025809037,0.24064948,-0.28658685,-0.7263147,-5.34375,-29.250002,-27.712502
1763129263300,-0.2757728,6.706484,6.573682,-0.54519683,-0.3741547,0.025809037,0.23511343,-0.28438672,-0.7275315,-5.34375,-29.250002,-27.712502
1763129263317,-0.2757728,6.706484,6.573682,-0.54519683,-0.3741547,0.025809037,0.23511343,-0.28438672,-0.7275315,-5.25,-28.25625,-27.0375
1763129263319,-0.2757728,6.706484,6.573682,-0.5545125,-0.3035998,0.062155493,0.23511343,-0.28438672,-0.7275315,-5.25,-28.25625,-27.0375
1763129263320,-0.2757728,6.706484,6.573682,-0.5545125,-0.3035998,0.062155493,0.22976452,-0.2818631,-0.7286642,-5.25,-28.25625,-27.0375
1763129263323,-0.19142582,6.282356,6.8261247,-0.5545125,-0.3035998,0.062155493,0.22976452,-0.2818631,-0.7286642,-5.25,-28.25625,-27.0375
1763129263337,-0.19142582,6.282356,6.8261247,-0.5545125,-0.3035998,0.062155493,0.22976452,-0.2818631,-0.7286642,-5.68125,-28.031252,-26.475
1763129263340,-0.19142582,6.282356,6.8261247,-0.6334668,-0.1924224,0.07040217,0.22976452,-0.2818631,-0.7286642,-5.68125,-28.031252,-26.475
1763129263341,-0.19142582,6.282356,6.8261247,-0.6334668,-0.1924224,0.07040217,0.22438915,-0.27825487,-0.73030365,-5.68125,-28.031252,-26.475
1763129263342,0.049052864,6.37089,7.146165,-0.6334668,-0.1924224,0.07040217,0.22438915,-0.27825487,-0.73030365,-5.68125,-28.031252,-26.475
1763129263358,0.049052864,6.37089,7.146165,-0.6334668,-0.1924224,0.07040217,0.22438915,-0.27825487,-0.73030365,-5.34375,-27.7875,-26.2875
1763129263361,0.049052864,6.37089,7.146165,-0.69470596,-0.1414152,0.027183482,0.22438915,-0.27825487,-0.73030365,-5.34375,-27.7875,-26.2875
1763129263362,0.049052864,6.37089,7.146165,-0.69470596,-0.1414152,0.027183482,0.2190546,-0.27382013,-0.73231006,-5.34375,-27.7875,-26.2875
1763129263363,0.012562319,6.5485573,7.2616186,-0.69470596,-0.1414152,0.027183482,0.2190546,-0.27382013,-0.73231006,-5.34375,-27.7875,-26.2875
1763129263380,0.012562319,6.5485573,7.2616186,-0.69470596,-0.1414152,0.027183482,0.2190546,-0.27382013,-0.73231006,-6.3562503,-27.975,-26.643751
1763129263382,0.012562319,6.5485573,7.2616186,-0.7170025,-0.17776164,0.03970621,0.2190546,-0.27382013,-0.73231006,-6.3562503,-27.975,-26.643751
1763129263383,0.012562319,6.5485573,7.2616186,-0.7170025,-0.17776164,0.03970621,0.21346289,-0.26935032,-0.73397356,-6.3562503,-27.975,-26.643751
1763129263384,-0.2213361,6.189036,7.355537,-0.7170025,-0.17776164,0.03970621,0.21346289,-0.26935032,-0.73397356,-6.3562503,-27.975,-26.643751
1763129263397,-0.2213361,6.189036,7.355537,-0.7170025,-0.17776164,0.03970621,0.21346289,-0.26935032,-0.73397356,-6.9750004,-28.7625,-27.225
1763129263402,-0.2213361,6.189036,7.355537,-0.7165444,-0.1594357,0.12171481,0.21346289,-0.26935032,-0.73397356,-6.9750004,-28.7625,-27.225
1763129263403,-0.2213361,6.189036,7.355537,-0.7165444,-0.1594357,0.12171481,0.20769031,-0.26494652,-0.7352841,-6.9750004,-28.7625,-27.225
1763129263405,-0.45164528,5.884549,7.9908314,-0.7165444,-0.1594357,0.12171481,0.20769031,-0.26494652,-0.7352841,-6.9750004,-28.7625,-27.225
1763129263418,-0.45164528,5.884549,7.9908314,-0.7165444,-0.1594357,0.12171481,0.20769031,-0.26494652,-0.7352841,-9.637501,-28.893751,-27.525002
1763129263424,-0.45164528,5.884549,7.9908314,-0.6212495,0.012370012,0.2112065,0.20769031,-0.26494652,-0.7352841,-9.637501,-28.893751,-27.525002
1763129263426,-0.45164528,5.884549,7.9908314,-0.6212495,0.012370012,0.2112065,0.20321096,-0.26052368,-0.73615444,-9.637501,-28.893751,-27.525002
1763129263427,-0.38763726,5.8767724,8.547162,-0.6212495,0.012370012,0.2112065,0.20321096,-0.26052368,-0.73615444,-9.637501,-28.893751,-27.525002
1763129263438,-0.38763726,5.8767724,8.547162,-0.6212495,0.012370012,0.2112065,0.20321096,-0.26052368,-0.73615444,-6.4125004,-26.7,-27.91875
1763129263444,-0.38763726,5.8767724,8.547162,-0.4506655,0.13255766,0.21044292,0.20321096,-0.26052368,-0.73615444,-6.4125004,-26.7,-27.91875
1763129263446,-0.16091733,6.1878395,8.394022,-0.4506655,0.13255766,0.21044292,0.20321096,-0.26052368,-0.73615444,-6.4125004,-26.7,-27.91875
1763129263459,-0.16091733,6.1878395,8.394022,-0.4506655,0.13255766,0.21044292,0.2004792,-0.2567657,-0.73673105,-6.4125004,-26.7,-27.91875
1763129263460,-0.16091733,6.1878395,8.394022,-0.4506655,0.13255766,0.21044292,0.2004792,-0.2567657,-0.73673105,-9.31875,-29.456251,-25.312502
1763129263466,0.111864455,6.3804617,7.717451,-0.4506655,0.13255766,0.21044292,0.2004792,-0.2567657,-0.73673105,-9.31875,-29.456251,-25.312502
1763129263467,0.111864455,6.3804617,7.717451,-0.29947644,0.1310305,0.114689864,0.2004792,-0.2567657,-0.73673105,-9.31875,-29.456251,-25.312502
1763129263477,0.111864455,6.3804617,7.717451,-0.29947644,0.1310305,0.114689864,0.19920854,-0.25389057,-0.7368609,-9.31875,-29.456251,-25.312502
1763129263478,0.111864455,6.3804617,7.717451,-0.29947644,0.1310305,0.114689864,0.19920854,-0.25389057,-0.7368609,-6.7875004,-25.987501,-27.45
1763129263488,0.111864455,6.3804617,7.717451,-0.25610507,-0.091477,0.059253883,0.19920854,-0.25389057,-0.7368609,-6.7875004,-25.987501,-27.45
1763129263489,0.12562318,6.0550375,7.2502527,-0.25610507,-0.091477,0.059253883,0.19920854,-0.25389057,-0.7368609,-6.7875004,-25.987501,-27.45
1763129263497,0.12562318,6.0550375,7.2502527,-0.25610507,-0.091477,0.059253883,0.19707458,-0.25246683,-0.7366958,-6.7875004,-25.987501,-27.45
1763129263499,0.12562318,6.0550375,7.2502527,-0.25610507,-0.091477,0.059253883,0.19707458,-0.25246683,-0.7366958,-6.3187504,-25.06875,-26.493752
1763129263508,0.12562318,6.0550375,7.2502527,-0.31352636,-0.20021093,0.06918044,0.19707458,-0.25246683,-0.7366958,-6.3187504,-25.06875,-26.493752
1763129263509,0.15672988,5.9066825,7.440482,-0.31352636,-0.20021093,0.06918044,0.19707458,-0.25246683,-0.7366958,-6.3187504,-25.06875,-26.493752
1763129263517,0.15672988,5.9066825,7.440482,-0.31352636,-0.20021093,0.06918044,0.19378863,-0.2512674,-0.73668295,-6.3187504,-25.06875,-26.493752
1763129263518,0.15672988,5.9066825,7.440482,-0.31352636,-0.20021093,0.06918044,0.19378863,-0.2512674,-0.73668295,-7.0312505,-26.04375,-27.975
1763129263530,0.15672988,5.9066825,7.440482,-0.43065968,-0.13454297,0.1065959,0.19378863,-0.2512674,-0.73668295,-7.0312505,-26.04375,-27.975
1763129263531,0.15672988,5.8223357,7.6510506,-0.43065968,-0.13454297,0.1065959,0.19378863,-0.2512674,-0.73668295,-7.0312505,-26.04375,-27.975
1763129263539,0.15672988,5.8223357,7.6510506,-0.43065968,-0.13454297,0.1065959,0.19004631,-0.24888064,-0.7368497,-7.0312505,-26.04375,-27.975
1763129263540,0.15672988,5.8223357,7.6510506,-0.43065968,-0.13454297,0.1065959,0.19004631,-0.24888064,-0.7368497,-6.9375005,-25.218752,-26.643751
1763129263550,0.15672988,5.8223357,7.6510506,-0.48579022,-0.09789108,0.15897755,0.19004631,-0.24888064,-0.7368497,-6.9375005,-25.218752,-26.643751
1763129263551,0.1902294,5.8223357,7.905886,-0.48579022,-0.09789108,0.15897755,0.19004631,-0.24888064,-0.7368497,-6.9375005,-25.218752,-26.643751
1763129263558,0.1902294,5.8223357,7.905886,-0.48579022,-0.09789108,0.15897755,0.18602623,-0.2459628,-0.7368906,-6.9375005,-25.218752,-26.643751
1763129263559,0.1902294,5.8223357,7.905886,-0.48579022,-0.09789108,0.15897755,0.18602623,-0.2459628,-0.7368906,-8.306251,-27.6375,-28.06875
1763129263572,0.1902294,5.8223357,7.905886,-0.44333512,-0.04657844,0.1565341,0.18602623,-0.2459628,-0.7368906,-8.306251,-27.6375,-28.06875
1763129263573,0.14476576,5.8654065,8.078169,-0.44333512,-0.04657844,0.1565341,0.18602623,-0.2459628,-0.7368906,-8.306251,-27.6375,-28.06875
1763129263577,0.14476576,5.8654065,8.078169,-0.44333512,-0.04657844,0.1565341,0.18261924,-0.24306306,-0.7368175,-8.306251,-27.6375,-28.06875
1763129263578,0.14476576,5.8654065,8.078169,-0.44333512,-0.04657844,0.1565341,0.18261924,-0.24306306,-0.7368175,-7.2000003,-24.975,-28.9125
1763129263592,0.14476576,5.8654065,8.078169,-0.38026333,-0.019853106,0.16081016,0.18261924,-0.24306306,-0.7368175,-7.2000003,-24.975,-28.9125
1763129263593,0.039481573,5.8079786,7.940582,-0.38026333,-0.019853106,0.16081016,0.18261924,-0.24306306,-0.7368175,-7.2000003,-24.975,-28.9125
1763129263597,0.039481573,5.8079786,7.940582,-0.38026333,-0.019853106,0.16081016,0.17983608,-0.24046531,-0.73643935,-7.2000003,-24.975,-28.9125
1763129263598,0.039481573,5.8079786,7.940582,-0.38026333,-0.019853106,0.16081016,0.17983608,-0.24046531,-0.73643935,-7.275,-23.19375,-26.362501
1763129263613,0.039481573,5.8079786,7.940582,-0.34926194,-0.04382955,0.21655156,0.17983608,-0.24046531,-0.73643935,-7.275,-23.19375,-26.362501
1763129263614,-0.012562319,5.680561,8.009974,-0.34926194,-0.04382955,0.21655156,0.17983608,-0.24046531,-0.73643935,-7.275,-23.19375,-26.362501
1763129263618,-0.012562319,5.680561,8.009974,-0.34926194,-0.04382955,0.21655156,0.17704637,-0.23829912,-0.7354382,-7.275,-23.19375,-26.362501
1763129263619,-0.012562319,5.680561,8.009974,-0.34926194,-0.04382955,0.21655156,0.17704637,-0.23829912,-0.7354382,-8.6625,-26.268751,-27.7875
1763129263634,-0.012562319,5.680561,8.009974,-0.37705627,0.011300999,0.29260424,0.17704637,-0.23829912,-0.7354382,-8.6625,-26.268751,-27.7875
1763129263635,0.10707881,5.3886366,8.089535,-0.37705627,0.011300999,0.29260424,0.17704637,-0.23829912,-0.7354382,-8.6625,-26.268751,-27.7875
1763129263639,0.10707881,5.3886366,8.089535,-0.37705627,0.011300999,0.29260424,0.17427741,-0.23570615,-0.7339949,-8.6625,-26.268751,-27.7875
1763129263640,0.10707881,5.3886366,8.089535,-0.37705627,0.011300999,0.29260424,0.17427741,-0.23570615,-0.7339949,-7.05,-23.643751,-27.843752
1763129263655,0.10707881,5.3886366,8.089535,-0.38545567,0.022907428,0.35139996,0.17427741,-0.23570615,-0.7339949,-7.05,-23.643751,-27.843752
1763129263657,0.3481557,5.1607203,8.097312,-0.38545567,0.022907428,0.35139996,0.17427741,-0.23570615,-0.7339949,-7.05,-23.643751,-27.843752
1763129263658,0.3481557,5.1607203,8.097312,-0.38545567,0.022907428,0.35139996,0.17119412,-0.23316337,-0.73253953,-7.05,-23.643751,-27.843752
1763129263662,0.3481557,5.1607203,8.097312,-0.38545567,0.022907428,0.35139996,0.17119412,-0.23316337,-0.73253953,-8.15625,-24.69375,-27.45
1763129263675,0.3481557,5.1607203,8.097312,-0.3611738,0.007941242,0.32772896,0.17119412,-0.23316337,-0.73253953,-8.15625,-24.69375,-27.45
1763129263676,0.5808577,5.2929235,8.19781,-0.3611738,0.007941242,0.32772896,0.17119412,-0.23316337,-0.73253953,-8.15625,-24.69375,-27.45
1763129263677,0.5808577,5.2929235,8.19781,-0.3611738,0.007941242,0.32772896,0.16804436,-0.23093992,-0.7314517,-8.15625,-24.69375,-27.45
1763129263678,0.5808577,5.2929235,8.19781,-0.3611738,0.007941242,0.32772896,0.16804436,-0.23093992,-0.7314517,-6.5062504,-22.237501,-27.91875
1763129263700,0.5808577,5.2929235,8.19781,-0.33169958,0.043065965,0.25732678,0.16804436,-0.23093992,-0.7314517,-6.5062504,-22.237501,-27.91875
1763129263702,0.5808577,5.2929235,8.19781,-0.33169958,0.043065965,0.25732678,0.16556276,-0.22859843,-0.7304996,-6.5062504,-22.237501,-27.91875
1763129263703,0.5808577,5.2929235,8.19781,-0.33169958,0.043065965,0.25732678,0.16556276,-0.22859843,-0.7304996,-8.3625,-24.2625,-26.41875
1763129263704,0.6861419,5.296513,8.303095,-0.33169958,0.043065965,0.25732678,0.16556276,-0.22859843,-0.7304996,-8.3625,-24.2625,-26.41875
1763129263718,0.6664011,5.272585,8.249256,-0.33169958,0.043065965,0.25732678,0.16556276,-0.22859843,-0.7304996,-8.3625,-24.2625,-26.41875
1763129263719,0.6664011,5.272585,8.249256,-0.2535089,0.04612029,0.1802051,0.16556276,-0.22859843,-0.7304996,-8.3625,-24.2625,-26.41875
1763129263720,0.6664011,5.272585,8.249256,-0.2535089,0.04612029,0.1802051,0.16377094,-0.22672021,-0.72986853,-8.3625,-24.2625,-26.41875
1763129263722,0.6664011,5.272585,8.249256,-0.2535089,0.04612029,0.1802051,0.16377094,-0.22672021,-0.72986853,-6.525,-23.98125,-25.031252
1763129263738,0.6664011,5.272585,8.249256,-0.2535089,0.04612029,0.1802051,0.16377094,-0.22672021,-0.72986853,-8.8125,-24.675001,-26.1375
1763129263740,0.58683974,5.313861,8.146365,-0.2535089,0.04612029,0.1802051,0.16377094,-0.22672021,-0.72986853,-8.8125,-24.675001,-26.1375
1763129263742,0.58683974,5.313861,8.146365,-0.14446951,-0.03451386,0.08628465,0.16377094,-0.22672021,-0.72986853,-8.8125,-24.675001,-26.1375
1763129263743,0.58683974,5.313861,8.146365,-0.14446951,-0.03451386,0.08628465,0.16233806,-0.22602344,-0.72964734,-8.8125,-24.675001,-26.1375
1763129263757,0.58683974,5.313861,8.146365,-0.14446951,-0.03451386,0.08628465,0.16233806,-0.22602344,-0.72964734,-6.9750004,-22.5,-27.675001
1763129263760,0.58683974,5.313861,8.146365,-0.11835505,-0.054825112,0.022601997,0.16233806,-0.22602344,-0.72964734,-6.9750004,-22.5,-27.675001
1763129263762,0.58683974,5.313861,8.146365,-0.11835505,-0.054825112,0.022601997,0.1611881,-0.22550009,-0.7295887,-6.9750004,-22.5,-27.675001
1763129263763,0.50368917,5.2755756,8.078169,-0.11835505,-0.054825112,0.022601997,0.1611881,-0.22550009,-0.7295887,-6.9750004,-22.5,-27.675001
1763129263778,0.50368917,5.2755756,8.078169,-0.11835505,-0.054825112,0.022601997,0.1611881,-0.22550009,-0.7295887,-7.8750005,-23.19375,-28.518751
1763129263781,0.50368917,5.2755756,8.078169,-0.11835505,-0.054825112,0.022601997,0.1603577,-0.22434781,-0.72948986,-7.8750005,-23.19375,-28.518751
1763129263782,0.50368917,5.2755756,8.078169,-0.14645483,0.0013744457,0.012064579,0.1603577,-0.22434781,-0.72948986,-7.8750005,-23.19375,-28.518751
1763129263783,0.42891344,5.144569,8.207381,-0.14645483,0.0013744457,0.012064579,0.1603577,-0.22434781,-0.72948986,-7.8750005,-23.19375,-28.518751
1763129263798,0.42891344,5.144569,8.207381,-0.14645483,0.0013744457,0.012064579,0.1603577,-0.22434781,-0.72948986,-8.90625,-23.925001,-29.23125
1763129263802,0.42891344,5.144569,8.207381,-0.14645483,0.0013744457,0.012064579,0.15948887,-0.22307333,-0.7292983,-8.90625,-23.925001,-29.23125
1763129263803,0.36550367,5.131408,8.242676,-0.14645483,0.0013744457,0.012064579,0.15948887,-0.22307333,-0.7292983,-8.90625,-23.925001,-29.23125
1763129263804,0.36550367,5.131408,8.242676,-0.15225805,0.028252495,0.05894845,0.15948887,-0.22307333,-0.7292983,-8.90625,-23.925001,-29.23125
1763129263818,0.36550367,5.131408,8.242676,-0.15225805,0.028252495,0.05894845,0.15948887,-0.22307333,-0.7292983,-8.700001,-23.7,-28.312502
1763129263823,0.36550367,5.131408,8.242676,-0.15225805,0.028252495,0.05894845,0.15861896,-0.22179867,-0.7288465,-8.700001,-23.7,-28.312502
1763129263824,0.36550367,5.131408,8.242676,-0.15164718,0.03527744,0.09315688,0.15861896,-0.22179867,-0.7288465,-8.700001,-23.7,-28.312502
1763129263826,0.4755735,5.2199426,8.3784685,-0.15164718,0.03527744,0.09315688,0.15861896,-0.22179867,-0.7288465,-8.700001,-23.7,-28.312502
1763129263838,0.4755735,5.2199426,8.3784685,-0.15164718,0.03527744,0.09315688,0.15861896,-0.22179867,-0.7288465,-6.5625005,-21.91875,-27.2625
1763129263843,0.4755735,5.2199426,8.3784685,-0.15913028,0.09025527,0.08567379,0.15861896,-0.22179867,-0.7288465,-6.5625005,-21.91875,-27.2625
1763129263844,0.4755735,5.2199426,8.3784685,-0.15913028,0.09025527,0.08567379,0.15813409,-0.22010599,-0.72832364,-6.5625005,-21.91875,-27.2625
1763129263846,0.55334026,5.18405,8.437093,-0.15913028,0.09025527,0.08567379,0.15813409,-0.22010599,-0.72832364,-6.5625005,-21.91875,-27.2625
1763129263858,0.55334026,5.18405,8.437093,-0.15913028,0.09025527,0.08567379,0.15813409,-0.22010599,-0.72832364,-6.675,-20.493752,-27.50625
1763129263865,0.55334026,5.18405,8.437093,-0.15913028,0.09025527,0.08567379,0.15806541,-0.21858595,-0.72787035,-6.675,-20.493752,-27.50625
1763129263866,0.55334026,5.18405,8.437093,-0.11835505,0.11133011,0.067958705,0.15806541,-0.21858595,-0.72787035,-6.675,-20.493752,-27.50625
1763129263867,0.4851448,5.15414,8.4705925,-0.11835505,0.11133011,0.067958705,0.15806541,-0.21858595,-0.72787035,-6.675,-20.493752,-27.50625
1763129263878,0.4851448,5.15414,8.4705925,-0.11835505,0.11133011,0.067958705,0.15806541,-0.21858595,-0.72787035,-7.5750003,-22.800001,-26.868752
1763129263886,0.4851448,5.15414,8.4705925,-0.051618073,0.082466744,0.04657844,0.15806541,-0.21858595,-0.72787035,-7.5750003,-22.800001,-26.868752
1763129263887,0.47018966,5.139783,8.290532,-0.051618073,0.082466744,0.04657844,0.15806541,-0.21858595,-0.72787035,-7.5750003,-22.800001,-26.868752
1763129263899,0.47018966,5.139783,8.290532,-0.051618073,0.082466744,0.04657844,0.15825938,-0.21772446,-0.72749543,-7.5750003,-22.800001,-26.868752
1763129263900,0.47018966,5.139783,8.290532,-0.051618073,0.082466744,0.04657844,0.15825938,-0.21772446,-0.72749543,-10.181251,-24.0375,-27.91875
1763129263907,0.47018966,5.139783,8.290532,-1.527162E-4,0.016951498,-0.006261364,0.15825938,-0.21772446,-0.72749543,-10.181251,-24.0375,-27.91875
1763129263908,0.4989035,5.2366924,8.062616,-1.527162E-4,0.016951498,-0.006261364,0.15825938,-0.21772446,-0.72749543,-10.181251,-24.0375,-27.91875
1763129263917,0.4989035,5.2366924,8.062616,-1.527162E-4,0.016951498,-0.006261364,0.15847853,-0.21758097,-0.7273129,-10.181251,-24.0375,-27.91875
1763129263918,0.4989035,5.2366924,8.062616,-1.527162E-4,0.016951498,-0.006261364,0.15847853,-0.21758097,-0.7273129,-6.99375,-22.5,-27.375002
1763129263927,0.4989035,5.2366924,8.062616,-6.108648E-4,-0.051923506,-0.057268575,0.15847853,-0.21758097,-0.7273129,-6.99375,-22.5,-27.375002
1763129263928,0.34097722,5.142774,8.021938,-6.108648E-4,-0.051923506,-0.057268575,0.15847853,-0.21758097,-0.7273129,-6.99375,-22.5,-27.375002
1763129263937,0.34097722,5.142774,8.021938,-6.108648E-4,-0.051923506,-0.057268575,0.15842965,-0.2177617,-0.7272289,-6.99375,-22.5,-27.375002
1763129263938,0.34097722,5.142774,8.021938,-6.108648E-4,-0.051923506,-0.057268575,0.15842965,-0.2177617,-0.7272289,-9.01875,-25.050001,-25.63125
1763129263949,0.34097722,5.142774,8.021938,-0.022143848,-0.038026333,-0.053908817,0.15842965,-0.2177617,-0.7272289,-9.01875,-25.050001,-25.63125
1763129263952,0.25722843,4.9639106,8.110473,-0.022143848,-0.038026333,-0.053908817,0.15842965,-0.2177617,-0.7272289,-9.01875,-25.050001,-25.63125
1763129263958,0.25722843,4.9639106,8.110473,-0.022143848,-0.038026333,-0.053908817,0.15842965,-0.2177617,-0.7272289,-10.44375,-24.093752,-26.456251
1763129263972,0.25722843,4.9639106,8.110473,-0.042302385,-0.07880156,-0.027488915,0.15842965,-0.2177617,-0.7272289,-10.44375,-24.093752,-26.456251
1763129263974,0.2428715,5.0309095,8.099107,-0.042302385,-0.07880156,-0.027488915,0.15842965,-0.2177617,-0.7272289,-10.44375,-24.093752,-26.456251
1763129263981,0.2428715,5.0309095,8.099107,-0.042302385,-0.07880156,-0.027488915,0.1595873,-0.21718855,-0.7244698,-10.44375,-24.093752,-26.456251
1763129263982,0.2428715,5.0309095,8.099107,-0.042302385,-0.07880156,-0.027488915,0.1593776,-0.21698597,-0.7239587,-10.44375,-24.093752,-26.456251
1763129263982,0.2428715,5.0309095,8.099107,-0.042302385,-0.07880156,-0.027488915,0.1593776,-0.21698597,-0.7239587,-11.08125,-24.375002,-23.25
1763129263991,0.2428715,5.0309095,8.099107,-0.020311253,-0.1386663,-0.021838415,0.1593776,-0.21698597,-0.7239587,-11.08125,-24.375002,-23.25
1763129263991,0.5246264,5.050052,8.344969,-0.020311253,-0.1386663,-0.021838415,0.1593776,-0.21698597,-0.7239587,-11.08125,-24.375002,-23.25
1763129263997,0.5246264,5.050052,8.344969,-0.020311253,-0.1386663,-0.021838415,0.15923142,-0.21720646,-0.72264266,-11.08125,-24.375002,-23.25
1763129263998,0.5246264,5.050052,8.344969,-0.020311253,-0.1386663,-0.021838415,0.15923142,-0.21720646,-0.72264266,-7.9500003,-20.625,-25.743752
1763129264030,0.5246264,5.050052,8.344969,0.008399391,-0.09789108,-0.06536253,0.15923142,-0.21720646,-0.72264266,-7.9500003,-20.625,-25.743752
1763129264030,0.5132605,5.122435,8.210373,0.008399391,-0.09789108,-0.06536253,0.15923142,-0.21720646,-0.72264266,-7.9500003,-20.625,-25.743752
1763129264031,0.5132605,5.122435,8.210373,0.008399391,-0.09789108,-0.06536253,0.15859784,-0.21790147,-0.72327065,-7.9500003,-20.625,-25.743752
1763129264032,0.5132605,5.122435,8.210373,0.008399391,-0.09789108,-0.06536253,0.15859784,-0.21790147,-0.72327065,-8.7375,-23.550001,-27.018751
