timestamp,accX,accY,accZ,gyroX,gyroY,gyroZ,rotX,rotY,rotZ,magX,magY,magZ
1763129413180,-1.3286148,6.122635,7.6540413,0.069485866,-0.10827578,-0.032833982,0.35030943,-0.030338569,-0.1724593,-7.275,-2.6437502,-32.98125
1763129413181,-1.3286148,6.122635,7.6540413,0.091324285,-0.08643737,0.076358095,0.35030943,-0.030338569,-0.1724593,-7.275,-2.6437502,-32.98125
1763129413181,-1.3286148,6.122635,7.6540413,0.091324285,-0.08643737,0.076358095,0.35046858,-0.030945648,-0.17398234,-7.275,-2.6437502,-32.98125
1763129413182,-0.6047859,6.1190457,7.7383885,0.091324285,-0.08643737,0.076358095,0.35046858,-0.030945648,-0.17398234,-7.275,-2.6437502,-32.98125
1763129413197,-0.6047859,6.1190457,7.7383885,0.091324285,-0.08643737,0.076358095,0.35046858,-0.030945648,-0.17398234,-10.06875,-2.30625,-29.6625
1763129413200,-0.6047859,6.1190457,7.7383885,0.00763581,0.045051277,0.07910699,0.35046858,-0.030945648,-0.17398234,-10.06875,-2.30625,-29.6625
1763129413200,-0.6047859,6.1190457,7.7383885,0.00763581,0.045051277,0.07910699,0.34983325,-0.030841438,-0.17335153,-10.06875,-2.30625,-29.6625
1763129413201,-0.3906283,6.4067826,7.4979095,0.00763581,0.045051277,0.07910699,0.34983325,-0.030841438,-0.17335153,-10.06875,-2.30625,-29.6625
1763129413219,-0.3906283,6.4067826,7.4979095,0.00763581,0.045051277,0.07910699,0.34983325,-0.030841438,-0.17335153,-10.8,-4.875,-29.04375
1763129413222,-0.3906283,6.4067826,7.4979095,0.00763581,0.045051277,0.07910699,0.3497902,-0.030920906,-0.17197229,-10.8,-4.875,-29.04375
1763129413223,-0.3906283,6.4067826,7.4979095,0.008704823,0.04382955,0.07269291,0.3497902,-0.030920906,-0.17197229,-10.8,-4.875,-29.04375
1763129413223,-0.4833502,6.519245,7.3064837,0.008704823,0.04382955,0.07269291,0.3497902,-0.030920906,-0.17197229,-10.8,-4.875,-29.04375
1763129413237,-0.4833502,6.519245,7.3064837,0.008704823,0.04382955,0.07269291,0.3497902,-0.030920906,-0.17197229,-5.7937503,-1.5,-33.61875
1763129413242,-0.4833502,6.519245,7.3064837,0.012522728,0.047952887,0.08353576,0.3497902,-0.030920906,-0.17197229,-5.7937503,-1.5,-33.61875
1763129413243,-0.4833502,6.519245,7.3064837,0.012522728,0.047952887,0.08353576,0.3501459,-0.030914234,-0.1705763,-5.7937503,-1.5,-33.61875
1763129413244,-0.34456646,6.582057,7.3399835,0.012522728,0.047952887,0.08353576,0.3501459,-0.030914234,-0.1705763,-5.7937503,-1.5,-33.61875
1763129413258,-0.34456646,6.582057,7.3399835,0.012522728,0.047952887,0.08353576,0.3501459,-0.030914234,-0.1705763,-6.8812504,-2.71875,-33.75
1763129413264,-0.34456646,6.582057,7.3399835,0.012522728,0.047952887,0.08353576,0.3503718,-0.030762495,-0.16887741,-6.8812504,-2.71875,-33.75
1763129413265,-0.34456646,6.582057,7.3399835,-0.0058032153,0.068722285,0.072540194,0.3503718,-0.030762495,-0.16887741,-6.8812504,-2.71875,-33.75
1763129413265,-0.37447673,6.655038,7.299904,-0.0058032153,0.068722285,0.072540194,0.3503718,-0.030762495,-0.16887741,-6.8812504,-2.71875,-33.75
1763129413278,-0.37447673,6.655038,7.299904,-0.0058032153,0.068722285,0.072540194,0.3503718,-0.030762495,-0.16887741,-4.5,-1.5375,-34.575
1763129413284,-0.37447673,6.655038,7.299904,0.004734202,0.07086031,0.07742711,0.3503718,-0.030762495,-0.16887741,-4.5,-1.5375,-34.575
1763129413284,-0.37447673,6.655038,7.299904,0.004734202,0.07086031,0.07742711,0.35082686,-0.03059273,-0.16715083,-4.5,-1.5375,-34.575
1763129413285,-0.32362926,6.5371914,7.309475,0.004734202,0.07086031,0.07742711,0.35082686,-0.03059273,-0.16715083,-4.5,-1.5375,-34.575
1763129413298,-0.32362926,6.5371914,7.309475,0.004734202,0.07086031,0.07742711,0.35082686,-0.03059273,-0.16715083,-7.89375,-3.43125,-34.03125
1763129413306,-0.3062813,6.3804617,7.4620175,0.004734202,0.07086031,0.07742711,0.35082686,-0.03059273,-0.16715083,-7.89375,-3.43125,-34.03125
1763129413308,-0.3062813,6.3804617,7.4620175,0.04016436,0.07116575,0.0962112,0.35082686,-0.03059273,-0.16715083,-7.89375,-3.43125,-34.03125
1763129413319,-0.3062813,6.3804617,7.4620175,0.04016436,0.07116575,0.0962112,0.35143104,-0.030582951,-0.1652305,-7.89375,-3.43125,-34.03125
1763129413320,-0.3062813,6.3804617,7.4620175,0.04016436,0.07116575,0.0962112,0.35143104,-0.030582951,-0.1652305,-5.6625004,-3.73125,-35.550003
1763129413327,-0.3062813,6.3804617,7.4620175,0.13225223,0.12980877,0.15531237,0.35143104,-0.030582951,-0.1652305,-5.6625004,-3.73125,-35.550003
1763129413328,-0.465404,6.200402,7.697112,0.13225223,0.12980877,0.15531237,0.35143104,-0.030582951,-0.1652305,-5.6625004,-3.73125,-35.550003
1763129413337,-0.465404,6.200402,7.697112,0.13225223,0.12980877,0.15531237,0.35260218,-0.030385025,-0.1626592,-5.6625004,-3.73125,-35.550003
1763129413338,-0.465404,6.200402,7.697112,0.13225223,0.12980877,0.15531237,0.35260218,-0.030385025,-0.1626592,-5.625,-2.4375,-34.96875
1763129413348,-0.465404,6.200402,7.697112,0.2942841,0.19792019,0.24495678,0.35260218,-0.030385025,-0.1626592,-5.625,-2.4375,-34.96875
1763129413349,-0.5312066,6.2081785,7.737192,0.2942841,0.19792019,0.24495678,0.35260218,-0.030385025,-0.1626592,-5.625,-2.4375,-34.96875
1763129413357,-0.5312066,6.2081785,7.737192,0.2942841,0.19792019,0.24495678,0.3548925,-0.029975493,-0.15955693,-5.625,-2.4375,-34.96875
1763129413358,-0.5312066,6.2081785,7.737192,0.2942841,0.19792019,0.24495678,0.3548925,-0.029975493,-0.15955693,-6.43125,-3.0937502,-34.125
1763129413369,-0.5312066,6.2081785,7.737192,0.49861836,0.22357652,0.30634868,0.3548925,-0.029975493,-0.15955693,-6.43125,-3.0937502,-34.125
1763129413370,-0.5300102,6.2979093,7.389036,0.49861836,0.22357652,0.30634868,0.3548925,-0.029975493,-0.15955693,-6.43125,-3.0937502,-34.125
1763129413379,-0.5300102,6.2979093,7.389036,0.49861836,0.22357652,0.30634868,0.35900617,-0.029816667,-0.15594852,-6.43125,-3.0937502,-34.125
1763129413379,-0.5300102,6.2979093,7.389036,0.49861836,0.22357652,0.30634868,0.35900617,-0.029816667,-0.15594852,-6.15,-1.5937501,-35.04375
1763129413390,-0.5300102,6.2979093,7.389036,0.64812756,0.15271619,0.29825473,0.35900617,-0.029816667,-0.15594852,-6.15,-1.5937501,-35.04375
1763129413390,-0.33379877,6.7256265,6.7011,0.64812756,0.15271619,0.29825473,0.35900617,-0.029816667,-0.15594852,-6.15,-1.5937501,-35.04375
1763129413398,-0.33379877,6.7256265,6.7011,0.64812756,0.15271619,0.29825473,0.36473683,-0.030529115,-0.15256564,-6.15,-1.5937501,-35.04375
1763129413399,-0.33379877,6.7256265,6.7011,0.64812756,0.15271619,0.29825473,0.36473683,-0.030529115,-0.15256564,-5.025,-2.2875001,-34.0875
1763129413411,-0.33379877,6.7256265,6.7011,0.55008376,0.025503604,0.12064579,0.36473683,-0.030529115,-0.15256564,-5.025,-2.2875001,-34.0875
1763129413413,-0.14656039,7.2532434,5.8067822,0.55008376,0.025503604,0.12064579,0.36473683,-0.030529115,-0.15256564,-5.025,-2.2875001,-34.0875
1763129413417,-0.14656039,7.2532434,5.8067822,0.55008376,0.025503604,0.12064579,0.3704252,-0.031777754,-0.15051933,-5.025,-2.2875001,-34.0875
1763129413418,-0.14656039,7.2532434,5.8067822,0.55008376,0.025503604,0.12064579,0.3704252,-0.031777754,-0.15051933,-8.137501,-6.05625,-32.79375
1763129413432,-0.14656039,7.2532434,5.8067822,0.23854269,-0.08231403,-0.032833982,0.3704252,-0.031777754,-0.15051933,-8.137501,-6.05625,-32.79375
1763129413433,-0.42771706,7.128817,5.5160546,0.23854269,-0.08231403,-0.032833982,0.3704252,-0.031777754,-0.15051933,-8.137501,-6.05625,-32.79375
1763129413438,-0.42771706,7.128817,5.5160546,0.23854269,-0.08231403,-0.032833982,0.3704252,-0.031777754,-0.15051933,-5.8125,-5.3625,-32.90625
1763129413453,-0.42771706,7.128817,5.5160546,-0.042607818,-0.18936808,-0.03375028,0.3704252,-0.031777754,-0.15051933,-5.8125,-5.3625,-32.90625
1763129413454,-0.7286145,6.6358953,6.1124654,-0.042607818,-0.18936808,-0.03375028,0.3704252,-0.031777754,-0.15051933,-5.8125,-5.3625,-32.90625
1763129413458,-0.7286145,6.6358953,6.1124654,-0.042607818,-0.18936808,-0.03375028,0.3704252,-0.031777754,-0.15051933,-6.05625,-3.80625,-33.375
1763129413459,-0.7286145,6.6358953,6.1124654,-0.042607818,-0.18936808,-0.03375028,0.3728797,-0.03286061,-0.15082827,-6.05625,-3.80625,-33.375
1763129413460,-0.7286145,6.6358953,6.1124654,-0.042607818,-0.18936808,-0.03375028,0.37249762,-0.034481157,-0.15176348,-6.05625,-3.80625,-33.375
1763129413474,-0.7286145,6.6358953,6.1124654,-0.10690133,-0.2215912,0.056352276,0.37249762,-0.034481157,-0.15176348,-6.05625,-3.80625,-33.375
1763129413475,-0.69212395,6.3888364,6.843473,-0.10690133,-0.2215912,0.056352276,0.37249762,-0.034481157,-0.15176348,-6.05625,-3.80625,-33.375
1763129413478,-0.69212395,6.3888364,6.843473,-0.10690133,-0.2215912,0.056352276,0.37124047,-0.036618464,-0.15217935,-6.05625,-3.80625,-33.375
1763129413479,-0.69212395,6.3888364,6.843473,-0.10690133,-0.2215912,0.056352276,0.37124047,-0.036618464,-0.15217935,-5.8125,-2.8125,-34.93125
1763129413495,-0.69212395,6.3888364,6.843473,-0.0013744457,-0.24449863,0.11133011,0.37124047,-0.036618464,-0.15217935,-5.8125,-2.8125,-34.93125
1763129413496,-0.3475575,6.5928245,7.3172517,-0.0013744457,-0.24449863,0.11133011,0.37124047,-0.036618464,-0.15217935,-5.8125,-2.8125,-34.93125
1763129413498,-0.3475575,6.5928245,7.3172517,-0.0013744457,-0.24449863,0.11133011,0.37077236,-0.039359167,-0.15218492,-5.8125,-2.8125,-34.93125
1763129413499,-0.3475575,6.5928245,7.3172517,-0.0013744457,-0.24449863,0.11133011,0.37077236,-0.039359167,-0.15218492,-5.4375,-3.525,-35.25
1763129413516,-0.16749759,6.9212394,7.368099,-0.0013744457,-0.24449863,0.11133011,0.37077236,-0.039359167,-0.15218492,-5.4375,-3.525,-35.25
1763129413517,-0.16749759,6.9212394,7.368099,0.110108376,-0.22495095,0.077121675,0.37077236,-0.039359167,-0.15218492,-5.4375,-3.525,-35.25
1763129413517,-0.16749759,6.9212394,7.368099,0.110108376,-0.22495095,0.077121675,0.3713612,-0.04199794,-0.15230243,-5.4375,-3.525,-35.25
1763129413518,-0.16749759,6.9212394,7.368099,0.110108376,-0.22495095,0.077121675,0.3713612,-0.04199794,-0.15230243,-4.5375004,-2.025,-34.912502
1763129413538,-0.16749759,6.9212394,7.368099,0.110108376,-0.22495095,0.077121675,0.3724486,-0.04420405,-0.15303117,-4.5375004,-2.025,-34.912502
1763129413539,-0.16749759,6.9212394,7.368099,0.110108376,-0.22495095,0.077121675,0.3724486,-0.04420405,-0.15303117,-6.7500005,-3.4875002,-33.825
1763129413540,-0.4019942,6.940382,7.1342006,0.110108376,-0.22495095,0.077121675,0.3724486,-0.04420405,-0.15303117,-6.7500005,-3.4875002,-33.825
1763129413541,-0.4019942,6.940382,7.1342006,0.15118903,-0.20418155,-0.004734202,0.3724486,-0.04420405,-0.15303117,-6.7500005,-3.4875002,-33.825
1763129413558,-0.4019942,6.940382,7.1342006,0.09010255,-0.21258095,-0.022296565,0.3724486,-0.04420405,-0.15303117,-6.7500005,-3.4875002,-33.825
1763129413558,-0.4019942,6.940382,7.1342006,0.09010255,-0.21258095,-0.022296565,0.3729865,-0.046288177,-0.15406817,-6.7500005,-3.4875002,-33.825
1763129413560,-0.6155536,6.88774,6.9212394,0.09010255,-0.21258095,-0.022296565,0.3729865,-0.046288177,-0.15406817,-6.7500005,-3.4875002,-33.825
1763129413560,-0.6155536,6.88774,6.9212394,0.09010255,-0.21258095,-0.022296565,0.3729865,-0.046288177,-0.15406817,-5.625,-2.5875,-33.28125
1763129413578,-0.6155536,6.88774,6.9212394,0.09010255,-0.21258095,-0.022296565,0.3729865,-0.046288177,-0.15406817,-8.868751,-3.9750001,-32.49375
1763129413580,-0.6155536,6.88774,6.9212394,0.09010255,-0.21258095,-0.022296565,0.37200272,-0.0479595,-0.1552328,-8.868751,-3.9750001,-32.49375
1763129413581,-0.6155536,6.88774,6.9212394,-0.07422007,-0.20127994,-0.024281874,0.37200272,-0.0479595,-0.1552328,-8.868751,-3.9750001,-32.49375
1763129413584,-0.53240305,6.8865438,7.0337024,-0.07422007,-0.20127994,-0.024281874,0.37200272,-0.0479595,-0.1552328,-8.868751,-3.9750001,-32.49375
1763129413597,-0.53240305,6.8865438,7.0337024,-0.07422007,-0.20127994,-0.024281874,0.37200272,-0.0479595,-0.1552328,-5.8500004,-3.3000002,-35.86875
1763129413600,-0.53240305,6.8865438,7.0337024,-0.15913028,-0.19471315,-0.03451386,0.37200272,-0.0479595,-0.1552328,-5.8500004,-3.3000002,-35.86875
1763129413602,-0.53240305,6.8865438,7.0337024,-0.15913028,-0.19471315,-0.03451386,0.37020424,-0.049396522,-0.1564939,-5.8500004,-3.3000002,-35.86875
1763129413603,-0.381057,6.8081784,7.475178,-0.15913028,-0.19471315,-0.03451386,0.37020424,-0.049396522,-0.1564939,-5.8500004,-3.3000002,-35.86875
1763129413620,-0.381057,6.8081784,7.475178,-0.15913028,-0.19471315,-0.03451386,0.37020424,-0.049396522,-0.1564939,-5.9812503,-4.275,-33.693752
1763129413621,-0.381057,6.8081784,7.475178,-0.1065959,-0.13439025,-0.047494736,0.37020424,-0.049396522,-0.1564939,-5.9812503,-4.275,-33.693752
1763129413621,-0.381057,6.8081784,7.475178,-0.1065959,-0.13439025,-0.047494736,0.36892864,-0.050308235,-0.1576013,-5.9812503,-4.275,-33.693752
1763129413621,-0.4354937,6.6185474,7.8406816,-0.1065959,-0.13439025,-0.047494736,0.36892864,-0.050308235,-0.1576013,-5.9812503,-4.275,-33.693752
1763129413638,-0.4354937,6.6185474,7.8406816,-0.1065959,-0.13439025,-0.047494736,0.36892864,-0.050308235,-0.1576013,-7.51875,-5.7562504,-33.75
1763129413641,-0.4354937,6.6185474,7.8406816,0.011300999,-0.045967575,-0.03008509,0.36892864,-0.050308235,-0.1576013,-7.51875,-5.7562504,-33.75
1763129413641,-0.4354937,6.6185474,7.8406816,0.011300999,-0.045967575,-0.03008509,0.36882964,-0.050625414,-0.15819837,-7.51875,-5.7562504,-33.75
1763129413641,-0.58683974,6.5754766,7.7365937,0.011300999,-0.045967575,-0.03008509,0.36882964,-0.050625414,-0.15819837,-7.51875,-5.7562504,-33.75
1763129413658,-0.58683974,6.5754766,7.7365937,0.011300999,-0.045967575,-0.03008509,0.36882964,-0.050625414,-0.15819837,-8.775001,-3.6375,-33.46875
1763129413663,-0.58683974,6.5754766,7.7365937,0.123089254,-0.029779658,0.0036651888,0.36882964,-0.050625414,-0.15819837,-8.775001,-3.6375,-33.46875
1763129413663,-0.58683974,6.5754766,7.7365937,0.123089254,-0.029779658,0.0036651888,0.3698191,-0.051083487,-0.15840401,-8.775001,-3.6375,-33.46875
1763129413664,-0.5054838,6.6999035,7.548757,0.123089254,-0.029779658,0.0036651888,0.3698191,-0.051083487,-0.15840401,-8.775001,-3.6375,-33.46875
1763129413678,-0.5054838,6.6999035,7.548757,0.123089254,-0.029779658,0.0036651888,0.3698191,-0.051083487,-0.15840401,-9.1875,-3.5625002,-31.650002
1763129413683,-0.5054838,6.6999035,7.548757,0.19440772,0.017409647,0.012675445,0.3698191,-0.051083487,-0.15840401,-9.1875,-3.5625002,-31.650002
1763129413684,-0.5054838,6.6999035,7.548757,0.19440772,0.017409647,0.012675445,0.37160727,-0.05125426,-0.15825196,-9.1875,-3.5625002,-31.650002
1763129413686,-0.41336012,6.6538415,7.2789664,0.19440772,0.017409647,0.012675445,0.37160727,-0.05125426,-0.15825196,-9.1875,-3.5625002,-31.650002
1763129413697,-0.41336012,6.6538415,7.2789664,0.19440772,0.017409647,0.012675445,0.37160727,-0.05125426,-0.15825196,-6.8812504,-4.1625004,-34.443752
1763129413705,-0.41336012,6.6538415,7.2789664,0.17195843,0.048716467,-0.0012217296,0.37160727,-0.05125426,-0.15825196,-6.8812504,-4.1625004,-34.443752
1763129413706,-0.41336012,6.6538415,7.2789664,0.17195843,0.048716467,-0.0012217296,0.37326488,-0.0510462,-0.158076,-6.8812504,-4.1625004,-34.443752
1763129413707,-0.31764722,6.7669024,6.806982,0.17195843,0.048716467,-0.0012217296,0.37326488,-0.0510462,-0.158076,-6.8812504,-4.1625004,-34.443752
1763129413718,-0.31764722,6.7669024,6.806982,0.17195843,0.048716467,-0.0012217296,0.37326488,-0.0510462,-0.158076,-7.7625003,-4.36875,-33.581253
1763129413726,-0.31764722,6.7669024,6.806982,0.07589995,0.045967575,-0.024740024,0.37326488,-0.0510462,-0.158076,-7.7625003,-4.36875,-33.581253
1763129413727,-0.2757728,6.7764735,6.552745,0.07589995,0.045967575,-0.024740024,0.37326488,-0.0510462,-0.158076,-7.7625003,-4.36875,-33.581253
1763129413739,-0.2757728,6.7764735,6.552745,0.07589995,0.045967575,-0.024740024,0.37410262,-0.050626047,-0.15810761,-7.7625003,-4.36875,-33.581253
1763129413740,-0.2757728,6.7764735,6.552745,0.07589995,0.045967575,-0.024740024,0.37410262,-0.050626047,-0.15810761,-5.3625,-2.3812501,-35.53125
1763129413747,-0.2757728,6.7764735,6.552745,-0.016035201,0.008093959,-0.026725333,0.37410262,-0.050626047,-0.15810761,-5.3625,-2.3812501,-35.53125
1763129413748,-0.38285163,6.751349,6.5688963,-0.016035201,0.008093959,-0.026725333,0.37410262,-0.050626047,-0.15810761,-5.3625,-2.3812501,-35.53125
1763129413757,-0.38285163,6.751349,6.5688963,-0.016035201,0.008093959,-0.026725333,0.37404248,-0.050414145,-0.1583197,-5.3625,-2.3812501,-35.53125
1763129413758,-0.38285163,6.751349,6.5688963,-0.016035201,0.008093959,-0.026725333,0.37404248,-0.050414145,-0.1583197,-5.90625,-3.9375002,-33.9
1763129413769,-0.38285163,6.751349,6.5688963,-0.083383046,0.019089524,-0.016951498,0.37404248,-0.050414145,-0.1583197,-5.90625,-3.9375002,-33.9
1763129413771,-0.28235307,6.799206,6.81775,-0.083383046,0.019089524,-0.016951498,0.37404248,-0.050414145,-0.1583197,-5.90625,-3.9375002,-33.9
1763129413778,-0.28235307,6.799206,6.81775,-0.083383046,0.019089524,-0.016951498,0.37334853,-0.050010104,-0.15846851,-5.90625,-3.9375002,-33.9
1763129413779,-0.28235307,6.799206,6.81775,-0.083383046,0.019089524,-0.016951498,0.37334853,-0.050010104,-0.15846851,-5.3625,-1.725,-34.18125
1763129413789,-0.28235307,6.799206,6.81775,-0.101708986,0.03573559,-0.037873615,0.37334853,-0.050010104,-0.15846851,-5.3625,-1.725,-34.18125
1763129413790,-0.25184458,6.8398833,6.870392,-0.101708986,0.03573559,-0.037873615,0.37334853,-0.050010104,-0.15846851,-5.3625,-1.725,-34.18125
1763129413798,-0.25184458,6.8398833,6.870392,-0.101708986,0.03573559,-0.037873615,0.3724857,-0.04934893,-0.15873434,-5.3625,-1.725,-34.18125
1763129413799,-0.25184458,6.8398833,6.870392,-0.101708986,0.03573559,-0.037873615,0.3724857,-0.04934893,-0.15873434,-6.8250003,-4.4812503,-34.95
1763129413810,-0.25184458,6.8398833,6.870392,-0.08933897,0.015729768,-0.060475614,0.3724857,-0.04934893,-0.15873434,-6.8250003,-4.4812503,-34.95
1763129413811,-0.3367898,6.797411,6.999604,-0.08933897,0.015729768,-0.060475614,0.3724857,-0.04934893,-0.15873434,-6.8250003,-4.4812503,-34.95
1763129413820,-0.3367898,6.797411,6.999604,-0.08933897,0.015729768,-0.060475614,0.37172133,-0.048818227,-0.15927069,-6.8250003,-4.4812503,-34.95
1763129413821,-0.3367898,6.797411,6.999604,-0.08933897,0.015729768,-0.060475614,0.37172133,-0.048818227,-0.15927069,-5.90625,-3.2812502,-32.86875
1763129413831,-0.3367898,6.797411,6.999604,-0.0962112,0.023976443,-0.047647454,0.37172133,-0.048818227,-0.15927069,-5.90625,-3.2812502,-32.86875
1763129413831,-0.33499518,6.7202425,6.963114,-0.0962112,0.023976443,-0.047647454,0.37172133,-0.048818227,-0.15927069,-5.90625,-3.2812502,-32.86875
1763129413838,-0.33499518,6.7202425,6.963114,-0.0962112,0.023976443,-0.047647454,0.37087715,-0.048226546,-0.15966912,-5.90625,-3.2812502,-32.86875
1763129413839,-0.33499518,6.7202425,6.963114,-0.0962112,0.023976443,-0.047647454,0.37087715,-0.048226546,-0.15966912,-6.6562505,-3.80625,-35.98125
1763129413852,-0.33499518,6.7202425,6.963114,-0.09422589,-0.0029016077,-0.02443459,0.37087715,-0.048226546,-0.15966912,-6.6562505,-3.80625,-35.98125
1763129413853,-0.3062813,6.783054,7.045666,-0.09422589,-0.0029016077,-0.02443459,0.37087715,-0.048226546,-0.15966912,-6.6562505,-3.80625,-35.98125
1763129413858,-0.3062813,6.783054,7.045666,-0.09422589,-0.0029016077,-0.02443459,0.36998984,-0.04799992,-0.15998167,-6.6562505,-3.80625,-35.98125
1763129413859,-0.3062813,6.783054,7.045666,-0.09422589,-0.0029016077,-0.02443459,0.36998984,-0.04799992,-0.15998167,-6.675,-3.80625,-35.53125
1763129413873,-0.3062813,6.783054,7.045666,-0.082466744,0.0065667965,-0.03894263,0.36998984,-0.04799992,-0.15998167,-6.675,-3.80625,-35.53125
1763129413873,-0.2548356,6.806982,7.2323065,-0.082466744,0.0065667965,-0.03894263,0.36998984,-0.04799992,-0.15998167,-6.675,-3.80625,-35.53125
1763129413878,-0.2548356,6.806982,7.2323065,-0.082466744,0.0065667965,-0.03894263,0.3692393,-0.04764337,-0.16035739,-6.675,-3.80625,-35.53125
1763129413879,-0.2548356,6.806982,7.2323065,-0.082466744,0.0065667965,-0.03894263,0.3692393,-0.04764337,-0.16035739,-6.3375,-3.5625002,-34.59375
1763129413895,-0.2548356,6.806982,7.2323065,-0.08643737,0.06139191,-0.053603385,0.3692393,-0.04764337,-0.16035739,-6.3375,-3.5625002,-34.59375
1763129413896,-0.3924229,6.728617,7.238887,-0.08643737,0.06139191,-0.053603385,0.3692393,-0.04764337,-0.16035739,-6.3375,-3.5625002,-34.59375
1763129413899,-0.3924229,6.728617,7.238887,-0.08643737,0.06139191,-0.053603385,0.3685236,-0.04672596,-0.16069339,-6.3375,-3.5625002,-34.59375
1763129413901,-0.3924229,6.728617,7.238887,-0.08643737,0.06139191,-0.053603385,0.3685236,-0.04672596,-0.16069339,-5.8125,-2.8125,-34.93125
1763129413915,-0.3924229,6.728617,7.238887,-0.06017018,0.08460477,-0.019089524,0.3685236,-0.04672596,-0.16069339,-5.8125,-2.8125,-34.93125
1763129413915,-0.4223332,6.6963143,7.253842,-0.06017018,0.08460477,-0.019089524,0.3685236,-0.04672596,-0.16069339,-5.8125,-2.8125,-34.93125
1763129413917,-0.4223332,6.6963143,7.253842,-0.06017018,0.08460477,-0.019089524,0.36807448,-0.0457264,-0.16059488,-5.8125,-2.8125,-34.93125
1763129413918,-0.4223332,6.6963143,7.253842,-0.06017018,0.08460477,-0.019089524,0.36807448,-0.0457264,-0.16059488,-4.9875,-3.1125002,-36.43125
1763129413937,-0.4223332,6.6963143,7.253842,-0.0033597562,0.07925971,0.0033597562,0.36807448,-0.0457264,-0.16059488,-4.9875,-3.1125002,-36.43125
1763129413939,-0.3397808,6.704689,7.2011995,-0.0033597562,0.07925971,0.0033597562,0.36807448,-0.0457264,-0.16059488,-4.9875,-3.1125002,-36.43125
1763129413941,-0.3397808,6.704689,7.2011995,-0.0033597562,0.07925971,0.0033597562,0.3681437,-0.044962768,-0.16029394,-4.9875,-3.1125002,-36.43125
1763129413942,-0.3397808,6.704689,7.2011995,-0.0033597562,0.07925971,0.0033597562,0.3681437,-0.044962768,-0.16029394,-5.0062504,-3.0937502,-34.93125
1763129413958,-0.3397808,6.704689,7.2011995,0.049480047,0.08659008,-0.010384701,0.3681437,-0.044962768,-0.16029394,-5.0062504,-3.0937502,-34.93125
1763129413959,-0.3397808,6.704689,7.2011995,0.049480047,0.08659008,-0.010384701,0.3681437,-0.044962768,-0.16029394,-6.1312504,-4.8,-35.550003
1763129413962,-0.29491538,6.736394,7.175477,0.049480047,0.08659008,-0.010384701,0.3681437,-0.044962768,-0.16029394,-6.1312504,-4.8,-35.550003
1763129413979,-0.29491538,6.736394,7.175477,0.049480047,0.08659008,-0.010384701,0.36859655,-0.044205666,-0.1600686,-6.1312504,-4.8,-35.550003
1763129413980,-0.29491538,6.736394,7.175477,0.075594515,0.114689864,-0.017409647,0.36859655,-0.044205666,-0.1600686,-6.1312504,-4.8,-35.550003
1763129413981,-0.29491538,6.736394,7.175477,0.075594515,0.114689864,-0.017409647,0.3693844,-0.043254226,-0.15962726,-6.1312504,-4.8,-35.550003
1763129413983,-0.45942193,6.6215386,7.007381,0.075594515,0.114689864,-0.017409647,0.3693844,-0.043254226,-0.15962726,-6.1312504,-4.8,-35.550003
1763129413984,-0.45942193,6.6215386,7.007381,0.075594515,0.114689864,-0.017409647,0.3693844,-0.043254226,-0.15962726,-5.8125,-2.8125,-34.93125
1763129413997,-0.45942193,6.6215386,7.007381,0.075594515,0.114689864,-0.017409647,0.3693844,-0.043254226,-0.15962726,-5.0437503,-3.73125,-33.7125
1763129413998,-0.47258246,6.704689,6.8279195,0.075594515,0.114689864,-0.017409647,0.3693844,-0.043254226,-0.15962726,-5.0437503,-3.73125,-33.7125
1763129413999,-0.47258246,6.704689,6.8279195,0.075594515,0.114689864,-0.017409647,0.37006405,-0.042357538,-0.15936774,-5.0437503,-3.73125,-33.7125
1763129414000,-0.47258246,6.704689,6.8279195,0.061239194,0.10262528,0.008246674,0.37006405,-0.042357538,-0.15936774,-5.0437503,-3.73125,-33.7125
1763129414018,-0.47258246,6.704689,6.8279195,0.061239194,0.10262528,0.008246674,0.37006405,-0.042357538,-0.15936774,-4.93125,-2.7562501,-34.8375
1763129414021,-0.47258246,6.704689,6.8279195,0.014355322,0.0980438,0.016340632,0.37006405,-0.042357538,-0.15936774,-4.93125,-2.7562501,-34.8375
1763129414022,-0.47258246,6.704689,6.8279195,0.014355322,0.0980438,0.016340632,0.37057468,-0.041443653,-0.15890668,-4.93125,-2.7562501,-34.8375
1763129414023,-0.31286156,6.8261247,6.9505515,0.014355322,0.0980438,0.016340632,0.37057468,-0.041443653,-0.15890668,-4.93125,-2.7562501,-34.8375
1763129414038,-0.31286156,6.8261247,6.9505515,0.014355322,0.0980438,0.016340632,0.37057468,-0.041443653,-0.15890668,-5.9625,-4.425,-33.037502
1763129414041,-0.360718,6.786045,6.9188466,0.014355322,0.0980438,0.016340632,0.37057468,-0.041443653,-0.15890668,-5.9625,-4.425,-33.037502
1763129414042,-0.360718,6.786045,6.9188466,-9.162972E-4,0.11484258,-0.009315688,0.37057468,-0.041443653,-0.15890668,-5.9625,-4.425,-33.037502
1763129414043,-0.360718,6.786045,6.9188466,-9.162972E-4,0.11484258,-0.009315688,0.3709443,-0.04041034,-0.15820317,-5.9625,-4.425,-33.037502
1763129414058,-0.360718,6.786045,6.9188466,-9.162972E-4,0.11484258,-0.009315688,0.3709443,-0.04041034,-0.15820317,-4.96875,-2.7562501,-33.037502
1763129414062,-0.360718,6.786045,6.9188466,-9.162972E-4,0.11484258,-0.009315688,0.37135962,-0.03928264,-0.1575916,-4.96875,-2.7562501,-33.037502
1763129414064,-0.360718,6.786045,6.9188466,0.004581486,0.11835505,-0.015424335,0.37135962,-0.03928264,-0.1575916,-4.96875,-2.7562501,-33.037502
1763129414065,-0.5347959,6.650851,6.9278197,0.004581486,0.11835505,-0.015424335,0.37135962,-0.03928264,-0.1575916,-4.96875,-2.7562501,-33.037502
1763129414078,-0.5347959,6.650851,6.9278197,0.004581486,0.11835505,-0.015424335,0.37135962,-0.03928264,-0.1575916,-4.8375,-3.525,-33.54375
1763129414082,-0.5347959,6.650851,6.9278197,0.009162972,0.08628465,0.0050396346,0.37135962,-0.03928264,-0.1575916,-4.8375,-3.525,-33.54375
1763129414083,-0.5072784,6.722037,6.849455,0.009162972,0.08628465,0.0050396346,0.37135962,-0.03928264,-0.1575916,-4.8375,-3.525,-33.54375
1763129414085,-0.5072784,6.722037,6.849455,0.009162972,0.08628465,0.0050396346,0.3716098,-0.038410623,-0.15740159,-4.8375,-3.525,-33.54375
1763129414098,-0.5072784,6.722037,6.849455,0.009162972,0.08628465,0.0050396346,0.3716098,-0.038410623,-0.15740159,-5.7937503,-2.9625,-34.59375
1763129414104,-0.5072784,6.722037,6.849455,0.012064579,0.074830934,-6.108648E-4,0.3716098,-0.038410623,-0.15740159,-5.7937503,-2.9625,-34.59375
1763129414105,-0.5072784,6.722037,6.849455,0.012064579,0.074830934,-6.108648E-4,0.37202838,-0.037661657,-0.15712294,-5.7937503,-2.9625,-34.59375
1763129414107,-0.39840496,6.765706,6.9373913,0.012064579,0.074830934,-6.108648E-4,0.37202838,-0.037661657,-0.15712294,-5.7937503,-2.9625,-34.59375
1763129414117,-0.39840496,6.765706,6.9373913,0.012064579,0.074830934,-6.108648E-4,0.37202838,-0.037661657,-0.15712294,-4.0687504,-1.10625,-33.506252
1763129414124,-0.39840496,6.765706,6.9373913,0.012064579,0.074830934,-6.108648E-4,0.3722307,-0.03694713,-0.15684657,-4.0687504,-1.10625,-33.506252
1763129414126,-0.39840496,6.765706,6.9373913,-0.0030543238,0.07116575,-0.025503604,0.3722307,-0.03694713,-0.15684657,-4.0687504,-1.10625,-33.506252
1763129414127,-0.39421752,6.8051877,6.854839,-0.0030543238,0.07116575,-0.025503604,0.3722307,-0.03694713,-0.15684657,-4.0687504,-1.10625,-33.506252
1763129414138,-0.39421752,6.8051877,6.854839,-0.0030543238,0.07116575,-0.025503604,0.3722307,-0.03694713,-0.15684657,-5.6625004,-3.73125,-35.100002
1763129414146,-0.39421752,6.8051877,6.854839,-0.016951498,0.06017018,-0.032375835,0.3722307,-0.03694713,-0.15684657,-5.6625004,-3.73125,-35.100002
1763129414147,-0.5419743,6.7573314,6.8464637,-0.016951498,0.06017018,-0.032375835,0.3722307,-0.03694713,-0.15684657,-5.6625004,-3.73125,-35.100002
1763129414158,-0.5419743,6.7573314,6.8464637,-0.016951498,0.06017018,-0.032375835,0.37241933,-0.03629485,-0.15658,-5.6625004,-3.73125,-35.100002
1763129414159,-0.5419743,6.7573314,6.8464637,-0.016951498,0.06017018,-0.032375835,0.37241933,-0.03629485,-0.15658,-4.7625003,-2.3812501,-33.375
1763129414166,-0.5419743,6.7573314,6.8464637,-0.024281874,0.04963276,-0.021074835,0.37241933,-0.03629485,-0.15658,-4.7625003,-2.3812501,-33.375
1763129414167,-0.59940207,6.658627,6.8931236,-0.024281874,0.04963276,-0.021074835,0.37241933,-0.03629485,-0.15658,-4.7625003,-2.3812501,-33.375
1763129414178,-0.59940207,6.658627,6.8931236,-0.024281874,0.04963276,-0.021074835,0.37249285,-0.035655618,-0.1566146,-4.7625003,-2.3812501,-33.375
1763129414180,-0.59940207,6.658627,6.8931236,-0.024281874,0.04963276,-0.021074835,0.37249285,-0.035655618,-0.1566146,-4.70625,-2.5500002,-35.287502
1763129414188,-0.59940207,6.658627,6.8931236,-0.03573559,0.047647454,-7.6358096E-4,0.37249285,-0.035655618,-0.1566146,-4.70625,-2.5500002,-35.287502
1763129414189,-0.57427746,6.68435,6.990033,-0.03573559,0.047647454,-7.6358096E-4,0.37249285,-0.035655618,-0.1566146,-4.70625,-2.5500002,-35.287502
1763129414197,-0.57427746,6.68435,6.990033,-0.03573559,0.047647454,-7.6358096E-4,0.37229267,-0.03505089,-0.15665668,-4.70625,-2.5500002,-35.287502
1763129414198,-0.57427746,6.68435,6.990033,-0.03573559,0.047647454,-7.6358096E-4,0.37229267,-0.03505089,-0.15665668,-5.025,-3.7500002,-35.5125
1763129414209,-0.57427746,6.68435,6.990033,-0.030390523,0.05131264,0.011148282,0.37229267,-0.03505089,-0.15665668,-5.025,-3.7500002,-35.5125
1763129414210,-0.55393845,6.7226353,7.0145597,-0.030390523,0.05131264,0.011148282,0.37229267,-0.03505089,-0.15665668,-5.025,-3.7500002,-35.5125
1763129414220,-0.55393845,6.7226353,7.0145597,-0.030390523,0.05131264,0.011148282,0.37206993,-0.034496054,-0.15649794,-5.025,-3.7500002,-35.5125
1763129414221,-0.55393845,6.7226353,7.0145597,-0.030390523,0.05131264,0.011148282,0.37206993,-0.034496054,-0.15649794,-4.59375,-3.3187501,-34.443752
1763129414230,-0.55393845,6.7226353,7.0145597,-0.020158539,0.052839804,0.0013744457,0.37206993,-0.034496054,-0.15649794,-4.59375,-3.3187501,-34.443752
1763129414231,-0.5587241,6.75434,6.969096,-0.020158539,0.052839804,0.0013744457,0.37206993,-0.034496054,-0.15649794,-4.59375,-3.3187501,-34.443752
1763129414239,-0.5587241,6.75434,6.969096,-0.020158539,0.052839804,0.0013744457,0.37196982,-0.033928398,-0.15632474,-4.59375,-3.3187501,-34.443752
1763129414240,-0.5587241,6.75434,6.969096,-0.020158539,0.052839804,0.0013744457,0.37196982,-0.033928398,-0.15632474,-5.2125,-2.6625001,-34.800003
1763129414250,-0.5587241,6.75434,6.969096,-0.027947064,0.051618073,-0.0140498895,0.37196982,-0.033928398,-0.15632474,-5.2125,-2.6625001,-34.800003
1763129414251,-0.54436713,6.734599,6.9182487,-0.027947064,0.051618073,-0.0140498895,0.37196982,-0.033928398,-0.15632474,-5.2125,-2.6625001,-34.800003
1763129414257,-0.54436713,6.734599,6.9182487,-0.027947064,0.051618073,-0.0140498895,0.37189263,-0.03330601,-0.1562568,-5.2125,-2.6625001,-34.800003
1763129414258,-0.54436713,6.734599,6.9182487,-0.027947064,0.051618073,-0.0140498895,0.37189263,-0.03330601,-0.1562568,-5.8125,-2.9625,-33.99375
1763129414272,-0.54436713,6.734599,6.9182487,-0.05650499,0.03573559,-0.012217295,0.37189263,-0.03330601,-0.1562568,-5.8125,-2.9625,-33.99375
1763129414273,-0.5922236,6.7208405,7.0061846,-0.05650499,0.03573559,-0.012217295,0.37189263,-0.03330601,-0.1562568,-5.8125,-2.9625,-33.99375
1763129414278,-0.5922236,6.7208405,7.0061846,-0.05650499,0.03573559,-0.012217295,0.37189263,-0.03330601,-0.1562568,-6.1125,-3.5062501,-33.16875
1763129414279,-0.5922236,6.7208405,7.0061846,-0.05650499,0.03573559,-0.012217295,0.37155798,-0.03282015,-0.15619616,-6.1125,-3.5062501,-33.16875
1763129414292,-0.5922236,6.7208405,7.0061846,-0.05894845,0.043982264,1.527162E-4,0.37155798,-0.03282015,-0.15619616,-6.1125,-3.5062501,-33.16875
1763129414294,-0.63828546,6.672386,7.082755,-0.05894845,0.043982264,1.527162E-4,0.37155798,-0.03282015,-0.15619616,-6.1125,-3.5062501,-33.16875
1763129414298,-0.63828546,6.672386,7.082755,-0.05894845,0.043982264,1.527162E-4,0.37111703,-0.032262698,-0.15611087,-6.1125,-3.5062501,-33.16875
1763129414302,-0.63828546,6.672386,7.082755,-0.05894845,0.043982264,1.527162E-4,0.37111703,-0.032262698,-0.15611087,-4.7625003,-2.25,-35.381252
1763129414313,-0.63828546,6.672386,7.082755,-0.028252495,0.033444848,0.0018325944,0.37111703,-0.032262698,-0.15611087,-4.7625003,-2.25,-35.381252
1763129414315,-0.6203393,6.6939216,7.024131,-0.028252495,0.033444848,0.0018325944,0.37111703,-0.032262698,-0.15611087,-4.7625003,-2.25,-35.381252
1763129414319,-0.6203393,6.6939216,7.024131,-0.028252495,0.033444848,0.0018325944,0.370827,-0.03182863,-0.15618815,-4.7625003,-2.25,-35.381252
1763129414320,-0.6203393,6.6939216,7.024131,-0.028252495,0.033444848,0.0018325944,0.370827,-0.03182863,-0.15618815,-5.86875,-3.45,-33.412502
1763129414334,-0.6203393,6.6939216,7.024131,-0.015729768,0.034208428,-0.009162972,0.370827,-0.03182863,-0.15618815,-5.86875,-3.45,-33.412502
1763129414336,-0.53300124,6.6885376,6.987042,-0.015729768,0.034208428,-0.009162972,0.370827,-0.03182863,-0.15618815,-5.86875,-3.45,-33.412502
1763129414338,-0.53300124,6.6885376,6.987042,-0.015729768,0.034208428,-0.009162972,0.37075475,-0.031384595,-0.15625292,-5.86875,-3.45,-33.412502
1763129414340,-0.53300124,6.6885376,6.987042,-0.015729768,0.034208428,-0.009162972,0.37075475,-0.031384595,-0.15625292,-5.49375,-3.2062502,-35.34375
1763129414355,-0.56470615,6.631708,6.9966135,-0.015729768,0.034208428,-0.009162972,0.37075475,-0.031384595,-0.15625292,-5.49375,-3.2062502,-35.34375
1763129414357,-0.56470615,6.631708,6.9966135,-0.03405571,0.049327333,-0.007941242,0.37075475,-0.031384595,-0.15625292,-5.49375,-3.2062502,-35.34375
1763129414358,-0.56470615,6.631708,6.9966135,-0.03405571,0.049327333,-0.007941242,0.37055832,-0.030862335,-0.1560315,-5.49375,-3.2062502,-35.34375
1763129414360,-0.56470615,6.631708,6.9966135,-0.03405571,0.049327333,-0.007941242,0.37055832,-0.030862335,-0.1560315,-5.6062503,-2.5875,-34.331253
1763129414378,-0.56470615,6.631708,6.9966135,-0.03405571,0.049327333,-0.007941242,0.37036324,-0.030461637,-0.15569381,-5.6062503,-2.5875,-34.331253
1763129414379,-0.56470615,6.631708,6.9966135,-0.025503604,0.043982264,0.0151189035,0.37036324,-0.030461637,-0.15569381,-5.6062503,-2.5875,-34.331253
1763129414380,-0.6089734,6.6825557,7.0540414,-0.025503604,0.043982264,0.0151189035,0.37036324,-0.030461637,-0.15569381,-5.6062503,-2.5875,-34.331253
1763129414382,-0.6089734,6.6825557,7.0540414,-0.025503604,0.043982264,0.0151189035,0.37036324,-0.030461637,-0.15569381,-5.8875003,-3.9375002,-34.96875
1763129414398,-0.6089734,6.6825557,7.0540414,-0.025503604,0.043982264,0.0151189035,0.3702931,-0.029883089,-0.15545502,-5.8875003,-3.9375002,-34.96875
1763129414400,-0.6089734,6.6825557,7.0540414,-0.015729768,0.057879437,0.0067195124,0.3702931,-0.029883089,-0.15545502,-5.8875003,-3.9375002,-34.96875
1763129414401,-0.6089734,6.6825557,7.0540414,-0.015729768,0.057879437,0.0067195124,0.3702931,-0.029883089,-0.15545502,-4.8,-2.0812502,-34.518753
1763129414402,-0.5772685,6.7334027,7.090532,-0.015729768,0.057879437,0.0067195124,0.3702931,-0.029883089,-0.15545502,-4.8,-2.0812502,-34.518753
1763129414419,-0.5772685,6.7334027,7.090532,-0.028405212,0.07742711,-0.005497783,0.3702931,-0.029883089,-0.15545502,-4.8,-2.0812502,-34.518753
1763129414419,-0.5772685,6.7334027,7.090532,-0.028405212,0.07742711,-0.005497783,0.3701555,-0.029093834,-0.15514317,-4.8,-2.0812502,-34.518753
1763129414421,-0.5772685,6.7334027,7.090532,-0.028405212,0.07742711,-0.005497783,0.3701555,-0.029093834,-0.15514317,-6.0750003,-3.5062501,-35.287502
1763129414424,-0.47976094,6.821339,7.021738,-0.028405212,0.07742711,-0.005497783,0.3701555,-0.029093834,-0.15514317,-6.0750003,-3.5062501,-35.287502
1763129414438,-0.47976094,6.821339,7.021738,-0.028405212,0.07742711,-0.005497783,0.3701555,-0.029093834,-0.15514317,-5.9437504,-4.4437504,-34.8375
1763129414439,-0.47976094,6.821339,7.021738,-0.029932374,0.06704241,-0.03084867,0.3701555,-0.029093834,-0.15514317,-5.9437504,-4.4437504,-34.8375
1763129414440,-0.47976094,6.821339,7.021738,-0.029932374,0.06704241,-0.03084867,0.37016192,-0.028391376,-0.15474501,-5.9437504,-4.4437504,-34.8375
1763129414441,-0.40677986,6.829116,7.1509504,-0.029932374,0.06704241,-0.03084867,0.37016192,-0.028391376,-0.15474501,-5.9437504,-4.4437504,-34.8375
1763129414457,-0.40677986,6.829116,7.1509504,-0.029932374,0.06704241,-0.03084867,0.37016192,-0.028391376,-0.15474501,-5.5687504,-2.7562501,-35.175003
1763129414460,-0.40677986,6.829116,7.1509504,-0.029932374,0.06704241,-0.03084867,0.37026203,-0.027554866,-0.15438512,-5.5687504,-2.7562501,-35.175003
1763129414462,-0.56590253,6.7178497,7.0839515,-0.029932374,0.06704241,-0.03084867,0.37026203,-0.027554866,-0.15438512,-5.5687504,-2.7562501,-35.175003
1763129414463,-0.56590253,6.7178497,7.0839515,-0.00763581,0.08384119,-0.056810424,0.37026203,-0.027554866,-0.15438512,-5.5687504,-2.7562501,-35.175003
1763129414478,-0.56590253,6.7178497,7.0839515,-0.00763581,0.08384119,-0.056810424,0.37026203,-0.027554866,-0.15438512,-7.8562503,-5.1937504,-34.443752
1763129414481,-0.56590253,6.7178497,7.0839515,-0.0058032153,0.07971785,-0.043524116,0.37026203,-0.027554866,-0.15438512,-7.8562503,-5.1937504,-34.443752
1763129414482,-0.56590253,6.7178497,7.0839515,-0.0058032153,0.07971785,-0.043524116,0.37034133,-0.026672276,-0.15429772,-7.8562503,-5.1937504,-34.443752
1763129414483,-0.7639086,6.643672,6.98106,-0.0058032153,0.07971785,-0.043524116,0.37034133,-0.026672276,-0.15429772,-7.8562503,-5.1937504,-34.443752
1763129414498,-0.7639086,6.643672,6.98106,-0.0058032153,0.07971785,-0.043524116,0.37034133,-0.026672276,-0.15429772,-5.3625,-2.4,-36.73125
1763129414503,-0.7639086,6.643672,6.98106,-0.0058032153,0.07971785,-0.043524116,0.370248,-0.02551047,-0.15429012,-5.3625,-2.4,-36.73125
1763129414504,-0.7639086,6.643672,6.98106,-0.033139415,0.09880738,-0.013439025,0.370248,-0.02551047,-0.15429012,-5.3625,-2.4,-36.73125
1763129414504,-0.67836523,6.655038,6.980462,-0.033139415,0.09880738,-0.013439025,0.370248,-0.02551047,-0.15429012,-5.3625,-2.4,-36.73125
1763129414517,-0.67836523,6.655038,6.980462,-0.033139415,0.09880738,-0.013439025,0.370248,-0.02551047,-0.15429012,-4.93125,-2.7562501,-34.8375
1763129414523,-0.67836523,6.655038,6.980462,-0.04856375,0.10262528,-0.011606431,0.370248,-0.02551047,-0.15429012,-4.93125,-2.7562501,-34.8375
1763129414524,-0.67836523,6.655038,6.980462,-0.04856375,0.10262528,-0.011606431,0.37002084,-0.02438898,-0.15399726,-4.93125,-2.7562501,-34.8375
1763129414524,-0.5886344,6.726823,7.1898336,-0.04856375,0.10262528,-0.011606431,0.37002084,-0.02438898,-0.15399726,-4.93125,-2.7562501,-34.8375
1763129414537,-0.5886344,6.726823,7.1898336,-0.04856375,0.10262528,-0.011606431,0.37002084,-0.02438898,-0.15399726,-6.6937504,-3.80625,-34.48125
1763129414545,-0.5886344,6.726823,7.1898336,-0.005497783,0.1262963,-0.03604102,0.37002084,-0.02438898,-0.15399726,-6.6937504,-3.80625,-34.48125
1763129414546,-0.5886344,6.726823,7.1898336,-0.005497783,0.1262963,-0.03604102,0.37008077,-0.023124335,-0.1535941,-6.6937504,-3.80625,-34.48125
1763129414547,-0.6622137,6.6771717,7.225128,-0.005497783,0.1262963,-0.03604102,0.37008077,-0.023124335,-0.1535941,-6.6937504,-3.80625,-34.48125
1763129414558,-0.6622137,6.6771717,7.225128,-0.005497783,0.1262963,-0.03604102,0.37008077,-0.023124335,-0.1535941,-6.6562505,-5.5687504,-34.612503
1763129414565,-0.6622137,6.6771717,7.225128,0.031154104,0.105526894,-0.050396346,0.37008077,-0.023124335,-0.1535941,-6.6562505,-5.5687504,-34.612503
1763129414565,-0.8679964,6.5838513,6.914061,0.031154104,0.105526894,-0.050396346,0.37008077,-0.023124335,-0.1535941,-6.6562505,-5.5687504,-34.612503
1763129414578,-0.8679964,6.5838513,6.914061,0.031154104,0.105526894,-0.050396346,0.370367,-0.022018282,-0.15358657,-6.6562505,-5.5687504,-34.612503
1763129414579,-0.8679964,6.5838513,6.914061,0.031154104,0.105526894,-0.050396346,0.370367,-0.022018282,-0.15358657,-5.4,-2.3812501,-34.162502
1763129414587,-0.8679964,6.5838513,6.914061,0.016187917,0.061544627,-0.019853106,0.370367,-0.022018282,-0.15358657,-5.4,-2.3812501,-34.162502
1763129414587,-0.87936234,6.562316,6.8099732,0.016187917,0.061544627,-0.019853106,0.370367,-0.022018282,-0.15358657,-5.4,-2.3812501,-34.162502
1763129414597,-0.87936234,6.562316,6.8099732,0.016187917,0.061544627,-0.019853106,0.37070212,-0.021247283,-0.15388672,-5.4,-2.3812501,-34.162502
1763129414598,-0.87936234,6.562316,6.8099732,0.016187917,0.061544627,-0.019853106,0.37070212,-0.021247283,-0.15388672,-5.9437504,-4.5750003,-32.381252
1763129414608,-0.87936234,6.562316,6.8099732,-0.012522728,0.06139191,0.0016798781,0.37070212,-0.021247283,-0.15388672,-5.9437504,-4.5750003,-32.381252
1763129414609,-0.7082755,6.6646094,7.0061846,-0.012522728,0.06139191,0.0016798781,0.37070212,-0.021247283,-0.15388672,-5.9437504,-4.5750003,-32.381252
1763129414617,-0.7082755,6.6646094,7.0061846,-0.012522728,0.06139191,0.0016798781,0.37084645,-0.020500839,-0.15393278,-5.9437504,-4.5750003,-32.381252
1763129414618,-0.7082755,6.6646094,7.0061846,-0.012522728,0.06139191,0.0016798781,0.37084645,-0.020500839,-0.15393278,-4.4812503,-3.9375002,-35.756252
1763129414629,-0.7082755,6.6646094,7.0061846,-1.527162E-4,0.09315688,-0.015729768,0.37084645,-0.020500839,-0.15393278,-4.4812503,-3.9375002,-35.756252
1763129414630,-0.72263247,6.6711893,7.0875406,-1.527162E-4,0.09315688,-0.015729768,0.37084645,-0.020500839,-0.15393278,-4.4812503,-3.9375002,-35.756252
1763129414638,-0.72263247,6.6711893,7.0875406,-1.527162E-4,0.09315688,-0.015729768,0.37102622,-0.01959203,-0.15359336,-4.4812503,-3.9375002,-35.756252
1763129414639,-0.72263247,6.6711893,7.0875406,-1.527162E-4,0.09315688,-0.015729768,0.37102622,-0.01959203,-0.15359336,-2.3625002,-1.21875,-36.15
1763129414649,-0.72263247,6.6711893,7.0875406,0.029016078,0.112399116,-0.01527162,0.37102622,-0.01959203,-0.15359336,-2.3625002,-1.21875,-36.15
1763129414650,-0.8919246,6.556334,6.9738817,0.029016078,0.112399116,-0.01527162,0.37102622,-0.01959203,-0.15359336,-2.3625002,-1.21875,-36.15
1763129414661,-0.8919246,6.556334,6.9738817,0.029016078,0.112399116,-0.01527162,0.37142128,-0.018549705,-0.15318094,-2.3625002,-1.21875,-36.15
1763129414663,-0.8919246,6.556334,6.9738817,0.029016078,0.112399116,-0.01527162,0.37142128,-0.018549705,-0.15318094,-4.9875,-2.4562502,-34.48125
1763129414670,-0.8919246,6.556334,6.9738817,0.049480047,0.093615025,0.016035201,0.37142128,-0.018549705,-0.15318094,-4.9875,-2.4562502,-34.48125
1763129414671,-0.87936234,6.578468,6.856633,0.049480047,0.093615025,0.016035201,0.37142128,-0.018549705,-0.15318094,-4.9875,-2.4562502,-34.48125
1763129414678,-0.87936234,6.578468,6.856633,0.049480047,0.093615025,0.016035201,0.37198326,-0.017695064,-0.15295877,-4.9875,-2.4562502,-34.48125
1763129414679,-0.87936234,6.578468,6.856633,0.049480047,0.093615025,0.016035201,0.37198326,-0.017695064,-0.15295877,-4.2375,-3.8812501,-35.100002
1763129414691,-0.87936234,6.578468,6.856633,0.044134982,0.041538805,0.01282816,0.37198326,-0.017695064,-0.15295877,-4.2375,-3.8812501,-35.100002
1763129414692,-0.8213364,6.6532435,6.74776,0.044134982,0.041538805,0.01282816,0.37198326,-0.017695064,-0.15295877,-4.2375,-3.8812501,-35.100002
1763129414698,-0.8213364,6.6532435,6.74776,0.044134982,0.041538805,0.01282816,0.37254873,-0.01733457,-0.1528817,-4.2375,-3.8812501,-35.100002
1763129414699,-0.8213364,6.6532435,6.74776,0.044134982,0.041538805,0.01282816,0.37254873,-0.01733457,-0.1528817,-4.8375,-3.3750002,-34.5
1763129414713,-0.86141616,6.625128,6.771688,0.044134982,0.041538805,0.01282816,0.37254873,-0.01733457,-0.1528817,-4.8375,-3.3750002,-34.5
1763129414714,-0.86141616,6.625128,6.771688,0.010690134,0.012217295,0.010384701,0.37254873,-0.01733457,-0.1528817,-4.8375,-3.3750002,-34.5
1763129414718,-0.86141616,6.625128,6.771688,0.010690134,0.012217295,0.010384701,0.37293562,-0.017235257,-0.15270105,-4.8375,-3.3750002,-34.5
1763129414718,-0.86141616,6.625128,6.771688,0.010690134,0.012217295,0.010384701,0.37293562,-0.017235257,-0.15270105,-3.9562502,-3.1875002,-35.34375
1763129414733,-0.86141616,6.625128,6.771688,-0.04214967,0.013439025,0.018784093,0.37293562,-0.017235257,-0.15270105,-3.9562502,-3.1875002,-35.34375
1763129414734,-0.8787641,6.666404,6.890133,-0.04214967,0.013439025,0.018784093,0.37293562,-0.017235257,-0.15270105,-3.9562502,-3.1875002,-35.34375
1763129414739,-0.8787641,6.666404,6.890133,-0.04214967,0.013439025,0.018784093,0.37276888,-0.01704644,-0.1525834,-3.9562502,-3.1875002,-35.34375
1763129414740,-0.8787641,6.666404,6.890133,-0.04214967,0.013439025,0.018784093,0.37276888,-0.01704644,-0.1525834,-6.0375004,-3.825,-34.425003
1763129414754,-0.8961121,6.661618,7.11446,-0.04214967,0.013439025,0.018784093,0.37276888,-0.01704644,-0.1525834,-6.0375004,-3.825,-34.425003
1763129414755,-0.8961121,6.661618,7.11446,-0.060781047,3.054324E-4,0.035430156,0.37276888,-0.01704644,-0.1525834,-6.0375004,-3.825,-34.425003
1763129414758,-0.8961121,6.661618,7.11446,-0.060781047,3.054324E-4,0.035430156,0.37233058,-0.01701246,-0.15241902,-6.0375004,-3.825,-34.425003
1763129414759,-0.8961121,6.661618,7.11446,-0.060781047,3.054324E-4,0.035430156,0.37233058,-0.01701246,-0.15241902,-3.1125002,-2.8312502,-36.09375
1763129414775,-0.8961121,6.661618,7.11446,-0.031459536,0.0073303776,0.04780017,0.37233058,-0.01701246,-0.15241902,-3.1125002,-2.8312502,-36.09375
1763129414777,-0.7956135,6.658029,7.2263246,-0.031459536,0.0073303776,0.04780017,0.37233058,-0.01701246,-0.15241902,-3.1125002,-2.8312502,-36.09375
1763129414779,-0.7956135,6.658029,7.2263246,-0.031459536,0.0073303776,0.04780017,0.37193787,-0.016997028,-0.15221529,-3.1125002,-2.8312502,-36.09375
1763129414781,-0.7956135,6.658029,7.2263246,-0.031459536,0.0073303776,0.04780017,0.37193787,-0.016997028,-0.15221529,-3.7500002,-2.1750002,-35.4
1763129414796,-0.7956135,6.658029,7.2263246,0.0033597562,0.014202606,0.0490219,0.37193787,-0.016997028,-0.15221529,-3.7500002,-2.1750002,-35.4
1763129414798,-0.721436,6.734599,7.170093,0.0033597562,0.014202606,0.0490219,0.37193787,-0.016997028,-0.15221529,-3.7500002,-2.1750002,-35.4
1763129414798,-0.721436,6.734599,7.170093,0.0033597562,0.014202606,0.0490219,0.37174436,-0.017083814,-0.15181194,-3.7500002,-2.1750002,-35.4
1763129414799,-0.721436,6.734599,7.170093,0.0033597562,0.014202606,0.0490219,0.37174436,-0.017083814,-0.15181194,-5.25,-4.6125,-36.7125
1763129414819,-0.721436,6.734599,7.170093,0.0033597562,0.014202606,0.0490219,0.37192127,-0.017385809,-0.1514693,-5.25,-4.6125,-36.7125
1763129414820,-0.721436,6.734599,7.170093,0.031154104,-0.0097738365,0.023365578,0.37192127,-0.017385809,-0.1514693,-5.25,-4.6125,-36.7125
1763129414822,-0.721436,6.734599,7.170093,0.031154104,-0.0097738365,0.023365578,0.37192127,-0.017385809,-0.1514693,-4.8187504,-2.0812502,-33.16875
1763129414823,-0.6472585,6.856633,7.094121,0.031154104,-0.0097738365,0.023365578,0.37192127,-0.017385809,-0.1514693,-4.8187504,-2.0812502,-33.16875
1763129414838,-0.6472585,6.856633,7.094121,0.03161225,-0.034361143,6.108648E-4,0.37192127,-0.017385809,-0.1514693,-4.8187504,-2.0812502,-33.16875
1763129414839,-0.6472585,6.856633,7.094121,0.03161225,-0.034361143,6.108648E-4,0.37227294,-0.017895827,-0.15118438,-4.8187504,-2.0812502,-33.16875
1763129414841,-0.6472585,6.856633,7.094121,0.03161225,-0.034361143,6.108648E-4,0.37227294,-0.017895827,-0.15118438,-4.9500003,-2.60625,-35.34375
1763129414842,-0.83090764,6.7322063,7.0289164,0.03161225,-0.034361143,6.108648E-4,0.37227294,-0.017895827,-0.15118438,-4.9500003,-2.60625,-35.34375
1763129414858,-0.83090764,6.7322063,7.0289164,0.03161225,-0.034361143,6.108648E-4,0.37227294,-0.017895827,-0.15118438,-3.9,-2.04375,-35.175003
1763129414859,-0.83090764,6.7322063,7.0289164,0.03161225,-0.034361143,6.108648E-4,0.37251675,-0.018506274,-0.15121116,-3.9,-2.04375,-35.175003
1763129414861,-0.83090764,6.7322063,7.0289164,0.028710645,-0.04978548,0.033444848,0.37251675,-0.018506274,-0.15121116,-3.9,-2.04375,-35.175003
1763129414862,-0.86979103,6.680761,7.068398,0.028710645,-0.04978548,0.033444848,0.37251675,-0.018506274,-0.15121116,-3.9,-2.04375,-35.175003
1763129414878,-0.86979103,6.680761,7.068398,0.028710645,-0.04978548,0.033444848,0.37251675,-0.018506274,-0.15121116,-4.875,-4.51875,-36.318752
1763129414880,-0.86979103,6.680761,7.068398,0.028710645,-0.04978548,0.033444848,0.3727012,-0.019166052,-0.15140292,-4.875,-4.51875,-36.318752
1763129414882,-0.86979103,6.680761,7.068398,0.034819294,-0.05665771,0.037262753,0.3727012,-0.019166052,-0.15140292,-4.875,-4.51875,-36.318752
1763129414883,-0.7932207,6.617351,7.151549,0.034819294,-0.05665771,0.037262753,0.3727012,-0.019166052,-0.15140292,-4.875,-4.51875,-36.318752
1763129414898,-0.7932207,6.617351,7.151549,0.034819294,-0.05665771,0.037262753,0.3727012,-0.019166052,-0.15140292,-3.1125002,-2.8312502,-36.09375
1763129414902,-0.7932207,6.617351,7.151549,0.03573559,0.017409647,0.01802051,0.3727012,-0.019166052,-0.15140292,-3.1125002,-2.8312502,-36.09375
1763129414903,-0.63948184,6.6855464,7.179664,0.03573559,0.017409647,0.01802051,0.3727012,-0.019166052,-0.15140292,-3.1125002,-2.8312502,-36.09375
1763129414904,-0.63948184,6.6855464,7.179664,0.03573559,0.017409647,0.01802051,0.37282893,-0.019101655,-0.15134703,-3.1125002,-2.8312502,-36.09375
1763129414919,-0.63948184,6.6855464,7.179664,0.03573559,0.017409647,0.01802051,0.37282893,-0.019101655,-0.15134703,-4.18125,-3.3937502,-35.2125
1763129414923,-0.63948184,6.6855464,7.179664,0.0033597562,0.080634154,4.581486E-4,0.37282893,-0.019101655,-0.15134703,-4.18125,-3.3937502,-35.2125
1763129414924,-0.63948184,6.6855464,7.179664,0.0033597562,0.080634154,4.581486E-4,0.37277165,-0.018464508,-0.15080608,-4.18125,-3.3937502,-35.2125
1763129414925,-0.6364908,6.8129644,6.862615,0.0033597562,0.080634154,4.581486E-4,0.37277165,-0.018464508,-0.15080608,-4.18125,-3.3937502,-35.2125
1763129414937,-0.6364908,6.8129644,6.862615,0.0033597562,0.080634154,4.581486E-4,0.37277165,-0.018464508,-0.15080608,-3.3000002,-1.7437501,-35.98125
1763129414945,-0.6364908,6.8129644,6.862615,0.0033597562,0.080634154,4.581486E-4,0.37317854,-0.018456345,-0.15010534,-3.3000002,-1.7437501,-35.98125
1763129414946,-0.6364908,6.8129644,6.862615,0.009926553,0.021227552,0.018936807,0.37317854,-0.018456345,-0.15010534,-3.3000002,-1.7437501,-35.98125
1763129414948,-0.84347,6.7226353,6.9373913,0.009926553,0.021227552,0.018936807,0.37317854,-0.018456345,-0.15010534,-3.3000002,-1.7437501,-35.98125
1763129414957,-0.84347,6.7226353,6.9373913,0.009926553,0.021227552,0.018936807,0.37317854,-0.018456345,-0.15010534,-3.4687502,-2.2687502,-35.456253
1763129414964,-0.84347,6.7226353,6.9373913,0.07788526,-0.016646065,0.045203995,0.37317854,-0.018456345,-0.15010534,-3.4687502,-2.2687502,-35.456253
1763129414965,-0.84347,6.7226353,6.9373913,0.07788526,-0.016646065,0.045203995,0.3739908,-0.018818915,-0.14987051,-3.4687502,-2.2687502,-35.456253
1763129414966,-0.84107715,6.5258255,6.862615,0.07788526,-0.016646065,0.045203995,0.3739908,-0.018818915,-0.14987051,-3.4687502,-2.2687502,-35.456253
1763129414979,-0.84107715,6.5258255,6.862615,0.07788526,-0.016646065,0.045203995,0.3739908,-0.018818915,-0.14987051,-4.93125,-2.7562501,-35.5875
1763129414988,-0.84107715,6.5258255,6.862615,0.18264857,-0.06734784,0.0073303776,0.3739908,-0.018818915,-0.14987051,-4.93125,-2.7562501,-35.5875
1763129414989,-1.0977074,6.613762,5.7607207,0.18264857,-0.06734784,0.0073303776,0.3739908,-0.018818915,-0.14987051,-4.93125,-2.7562501,-35.5875
1763129414998,-1.0977074,6.613762,5.7607207,0.18264857,-0.06734784,0.0073303776,0.37553582,-0.019686596,-0.15035568,-4.93125,-2.7562501,-35.5875
1763129414999,-1.0977074,6.613762,5.7607207,0.18264857,-0.06734784,0.0073303776,0.37553582,-0.019686596,-0.15035568,-3.0937502,-2.98125,-36.506252
1763129415006,-1.0977074,6.613762,5.7607207,0.041844238,-0.20250167,0.025045456,0.37553582,-0.019686596,-0.15035568,-3.0937502,-2.98125,-36.506252
1763129415007,-0.73519474,6.7208405,6.2530437,0.041844238,-0.20250167,0.025045456,0.37553582,-0.019686596,-0.15035568,-3.0937502,-2.98125,-36.506252
1763129415017,-0.73519474,6.7208405,6.2530437,0.041844238,-0.20250167,0.025045456,0.376883,-0.021402922,-0.15146981,-3.0937502,-2.98125,-36.506252
1763129415018,-0.73519474,6.7208405,6.2530437,0.041844238,-0.20250167,0.025045456,0.376883,-0.021402922,-0.15146981,-4.8,-3.54375,-35.34375
1763129415028,-0.73519474,6.7208405,6.2530437,-0.21151192,-0.22128576,0.03604102,0.376883,-0.021402922,-0.15146981,-4.8,-3.54375,-35.34375
1763129415029,-0.3188436,6.8949184,6.3200426,-0.21151192,-0.22128576,0.03604102,0.376883,-0.021402922,-0.15146981,-4.8,-3.54375,-35.34375
1763129415038,-0.3188436,6.8949184,6.3200426,-0.21151192,-0.22128576,0.03604102,0.37531057,-0.023256332,-0.15188175,-4.8,-3.54375,-35.34375
1763129415039,-0.3188436,6.8949184,6.3200426,-0.21151192,-0.22128576,0.03604102,0.37531057,-0.023256332,-0.15188175,-3.3375,-3.0375001,-35.9625
1763129415047,-0.3188436,6.8949184,6.3200426,-0.37858346,-0.14660755,-0.057726722,0.37531057,-0.023256332,-0.15188175,-3.3375,-3.0375001,-35.9625
1763129415048,-0.61435723,6.773483,7.641479,-0.37858346,-0.14660755,-0.057726722,0.37531057,-0.023256332,-0.15188175,-3.3375,-3.0375001,-35.9625
1763129415058,-0.61435723,6.773483,7.641479,-0.37858346,-0.14660755,-0.057726722,0.3724241,-0.024135467,-0.15188555,-3.3375,-3.0375001,-35.9625
1763129415059,-0.61435723,6.773483,7.641479,-0.37858346,-0.14660755,-0.057726722,0.3724241,-0.024135467,-0.15188555,-4.9500003,-2.60625,-35.04375
1763129415070,-0.61435723,6.773483,7.641479,-0.26740605,0.04138609,-0.062308207,0.3724241,-0.024135467,-0.15188555,-4.9500003,-2.60625,-35.04375
1763129415071,-1.0654043,5.918647,8.383254,-0.26740605,0.04138609,-0.062308207,0.3724241,-0.024135467,-0.15188555,-4.9500003,-2.60625,-35.04375
1763129415079,-1.0654043,5.918647,8.383254,-0.26740605,0.04138609,-0.062308207,0.36940238,-0.023154205,-0.15234323,-4.9500003,-2.60625,-35.04375
1763129415079,-1.0654043,5.918647,8.383254,-0.26740605,0.04138609,-0.062308207,0.36940238,-0.023154205,-0.15234323,-5.2312503,-3.16875,-36.787502
1763129415094,-1.1533405,6.716055,7.5122666,-0.26740605,0.04138609,-0.062308207,0.36940238,-0.023154205,-0.15234323,-5.2312503,-3.16875,-36.787502
1763129415095,-1.1533405,6.716055,7.5122666,0.0772744,0.049938194,0.057115857,0.36940238,-0.023154205,-0.15234323,-5.2312503,-3.16875,-36.787502
