timestamp,accX,accY,accZ,gyroX,gyroY,gyroZ,rotX,rotY,rotZ,magX,magY,magZ
1763129347518,1.6893328,3.5090744,8.018947,0.19853105,0.47006044,0.1669188,0.16096246,-0.1338399,-0.30474165,-13.368751,7.3500004,-29.2875
1763129347518,1.6893328,3.5090744,8.018947,-0.050243627,0.6178897,0.12079851,0.16096246,-0.1338399,-0.30474165,-13.368751,7.3500004,-29.2875
1763129347519,1.6893328,3.5090744,8.018947,-0.050243627,0.6178897,0.12079851,0.16096246,-0.1338399,-0.30474165,-15.356251,8.212501,-25.706251
1763129347519,1.989632,3.5970106,8.398808,-0.050243627,0.6178897,0.12079851,0.16096246,-0.1338399,-0.30474165,-15.356251,8.212501,-25.706251
1763129347539,1.5427724,3.6430724,9.196814,-0.050243627,0.6178897,0.12079851,0.16096246,-0.1338399,-0.30474165,-15.356251,8.212501,-25.706251
1763129347539,1.5427724,3.6430724,9.196814,-0.24465135,0.62583095,0.027030766,0.16096246,-0.1338399,-0.30474165,-15.356251,8.212501,-25.706251
1763129347540,1.5427724,3.6430724,9.196814,-0.24465135,0.62583095,0.027030766,0.16056862,-0.12792884,-0.30197582,-15.356251,8.212501,-25.706251
1763129347541,1.5427724,3.6430724,9.196814,-0.24465135,0.62583095,0.027030766,0.16056862,-0.12792884,-0.30197582,-20.00625,4.275,-21.206251
1763129347557,1.5427724,3.6430724,9.196814,-0.24465135,0.62583095,0.027030766,0.16056862,-0.12792884,-0.30197582,-14.75625,4.65,-27.018751
1763129347558,1.5427724,3.6430724,9.196814,-0.21044292,0.26664248,-0.011148282,0.16056862,-0.12792884,-0.30197582,-14.75625,4.65,-27.018751
1763129347558,1.5427724,3.6430724,9.196814,-0.21044292,0.26664248,-0.011148282,0.15917276,-0.12484369,-0.30161777,-14.75625,4.65,-27.018751
1763129347559,1.1563315,3.5700915,9.461221,-0.21044292,0.26664248,-0.011148282,0.15917276,-0.12484369,-0.30161777,-14.75625,4.65,-27.018751
1763129347578,1.1563315,3.5700915,9.461221,-0.21044292,0.26664248,-0.011148282,0.15917276,-0.12484369,-0.30161777,-16.931252,5.8500004,-24.581251
1763129347580,1.1563315,3.5700915,9.461221,-0.0716239,-0.092546016,0.007177661,0.15917276,-0.12484369,-0.30161777,-16.931252,5.8500004,-24.581251
1763129347580,1.1563315,3.5700915,9.461221,-0.0716239,-0.092546016,0.007177661,0.1578397,-0.12513804,-0.30269802,-16.931252,5.8500004,-24.581251
1763129347581,1.1306087,3.5766716,9.381062,-0.0716239,-0.092546016,0.007177661,0.1578397,-0.12513804,-0.30269802,-16.931252,5.8500004,-24.581251
1763129347597,1.1306087,3.5766716,9.381062,-0.0716239,-0.092546016,0.007177661,0.1578397,-0.12513804,-0.30269802,-14.625001,5.3812504,-28.63125
1763129347600,1.1306087,3.5766716,9.381062,-0.0067195124,-0.10567961,0.048411034,0.1578397,-0.12513804,-0.30269802,-14.625001,5.3812504,-28.63125
1763129347601,1.1306087,3.5766716,9.381062,-0.0067195124,-0.10567961,0.048411034,0.15713672,-0.12580961,-0.30331266,-14.625001,5.3812504,-28.63125
1763129347602,1.2873386,3.6484563,9.075378,-0.0067195124,-0.10567961,0.048411034,0.15713672,-0.12580961,-0.30331266,-14.625001,5.3812504,-28.63125
1763129347619,1.2873386,3.6484563,9.075378,-0.0067195124,-0.10567961,0.048411034,0.15713672,-0.12580961,-0.30331266,-13.931251,5.8500004,-29.456251
1763129347622,1.2873386,3.6484563,9.075378,-0.0490219,-0.00962112,0.06169734,0.15713672,-0.12580961,-0.30331266,-13.931251,5.8500004,-29.456251
1763129347623,1.3076776,3.5796626,8.850452,-0.0490219,-0.00962112,0.06169734,0.15713672,-0.12580961,-0.30331266,-13.931251,5.8500004,-29.456251
1763129347638,1.3076776,3.5796626,8.850452,-0.0490219,-0.00962112,0.06169734,0.15713672,-0.12580961,-0.30331266,-15.225,5.08125,-28.575
1763129347642,1.3076776,3.5796626,8.850452,-0.12599087,-0.0025961753,0.048411034,0.15713672,-0.12580961,-0.30331266,-15.225,5.08125,-28.575
1763129347643,1.3076776,3.5796626,8.850452,-0.12599087,-0.0025961753,0.048411034,0.15655424,-0.12583303,-0.3028179,-15.225,5.08125,-28.575
1763129347644,1.3076776,3.5796626,8.850452,-0.12599087,-0.0025961753,0.048411034,0.15526897,-0.1255323,-0.3025153,-15.225,5.08125,-28.575
1763129347644,1.3459628,3.5784662,8.966505,-0.12599087,-0.0025961753,0.048411034,0.15526897,-0.1255323,-0.3025153,-15.225,5.08125,-28.575
1763129347657,1.3459628,3.5784662,8.966505,-0.12599087,-0.0025961753,0.048411034,0.15526897,-0.1255323,-0.3025153,-13.106251,6.20625,-28.406252
1763129347664,1.3459628,3.5784662,8.966505,-0.13988803,-0.11270455,-0.0035124724,0.15526897,-0.1255323,-0.3025153,-13.106251,6.20625,-28.406252
1763129347665,1.3459628,3.5784662,8.966505,-0.13988803,-0.11270455,-0.0035124724,0.15356115,-0.12617983,-0.30292162,-13.106251,6.20625,-28.406252
1763129347666,1.3483555,3.5001013,8.995817,-0.13988803,-0.11270455,-0.0035124724,0.15356115,-0.12617983,-0.30292162,-13.106251,6.20625,-28.406252
1763129347678,1.3483555,3.5001013,8.995817,-0.13988803,-0.11270455,-0.0035124724,0.15356115,-0.12617983,-0.30292162,-13.218751,6.9750004,-29.1
1763129347685,1.3483555,3.5001013,8.995817,-0.09758565,-0.14599667,-0.039553493,0.15356115,-0.12617983,-0.30292162,-13.218751,6.9750004,-29.1
1763129347686,1.3483555,3.5001013,8.995817,-0.09758565,-0.14599667,-0.039553493,0.15219128,-0.127221,-0.30369765,-13.218751,6.9750004,-29.1
1763129347687,1.3369896,3.519244,8.979067,-0.09758565,-0.14599667,-0.039553493,0.15219128,-0.127221,-0.30369765,-13.218751,6.9750004,-29.1
1763129347699,1.3369896,3.519244,8.979067,-0.09758565,-0.14599667,-0.039553493,0.15219128,-0.127221,-0.30369765,-12.712501,6.80625,-27.225
1763129347706,1.3369896,3.519244,8.979067,-0.05894845,-0.088269964,-0.01924224,0.15219128,-0.127221,-0.30369765,-12.712501,6.80625,-27.225
1763129347706,1.2167503,3.5306098,8.9348,-0.05894845,-0.088269964,-0.01924224,0.15219128,-0.127221,-0.30369765,-12.712501,6.80625,-27.225
1763129347719,1.2167503,3.5306098,8.9348,-0.05894845,-0.088269964,-0.01924224,0.1513658,-0.12785001,-0.3041319,-12.712501,6.80625,-27.225
1763129347720,1.2167503,3.5306098,8.9348,-0.05894845,-0.088269964,-0.01924224,0.1513658,-0.12785001,-0.3041319,-15.637501,6.4687505,-24.525002
1763129347728,1.2167503,3.5306098,8.9348,-0.068722285,-0.04046979,0.014202606,0.1513658,-0.12785001,-0.3041319,-15.637501,6.4687505,-24.525002
1763129347728,1.282553,3.4869409,8.919247,-0.068722285,-0.04046979,0.014202606,0.1513658,-0.12785001,-0.3041319,-15.637501,6.4687505,-24.525002
1763129347737,1.282553,3.4869409,8.919247,-0.068722285,-0.04046979,0.014202606,0.15056899,-0.1280109,-0.30420753,-15.637501,6.4687505,-24.525002
1763129347738,1.282553,3.4869409,8.919247,-0.068722285,-0.04046979,0.014202606,0.15056899,-0.1280109,-0.30420753,-12.900001,6.43125,-27.487501
1763129347748,1.282553,3.4869409,8.919247,-0.08613193,-0.06139191,0.013591741,0.15056899,-0.1280109,-0.30420753,-12.900001,6.43125,-27.487501
1763129347748,1.5254245,3.4420755,9.035298,-0.08613193,-0.06139191,0.013591741,0.15056899,-0.1280109,-0.30420753,-12.900001,6.43125,-27.487501
1763129347757,1.5254245,3.4420755,9.035298,-0.08613193,-0.06139191,0.013591741,0.14952853,-0.12833089,-0.30433106,-12.900001,6.43125,-27.487501
1763129347757,1.5254245,3.4420755,9.035298,-0.08613193,-0.06139191,0.013591741,0.14952853,-0.12833089,-0.30433106,-15.0375,6.2625003,-27.468752
1763129347768,1.5254245,3.4420755,9.035298,-0.07223476,-0.102472566,-0.033902995,0.14952853,-0.12833089,-0.30433106,-15.0375,6.2625003,-27.468752
1763129347769,1.5637096,3.394219,9.056235,-0.07223476,-0.102472566,-0.033902995,0.14952853,-0.12833089,-0.30433106,-15.0375,6.2625003,-27.468752
1763129347778,1.5637096,3.394219,9.056235,-0.07223476,-0.102472566,-0.033902995,0.14852796,-0.12905931,-0.30490872,-15.0375,6.2625003,-27.468752
1763129347779,1.5637096,3.394219,9.056235,-0.07223476,-0.102472566,-0.033902995,0.14852796,-0.12905931,-0.30490872,-14.2875,6.9187503,-25.9125
1763129347790,1.5637096,3.394219,9.056235,-0.06582068,-0.13622284,-0.056046844,0.14852796,-0.12905931,-0.30490872,-14.2875,6.9187503,-25.9125
1763129347791,1.4392828,3.4139597,8.92822,-0.06582068,-0.13622284,-0.056046844,0.14852796,-0.12905931,-0.30490872,-14.2875,6.9187503,-25.9125
1763129347798,1.4392828,3.4139597,8.92822,-0.06582068,-0.13622284,-0.056046844,0.14749949,-0.13010368,-0.30575112,-14.2875,6.9187503,-25.9125
1763129347799,1.4392828,3.4139597,8.92822,-0.06582068,-0.13622284,-0.056046844,0.14749949,-0.13010368,-0.30575112,-16.612501,4.125,-27.525002
1763129347811,1.4392828,3.4139597,8.92822,-0.09636392,-0.18539746,-0.04780017,0.14749949,-0.13010368,-0.30575112,-16.612501,4.125,-27.525002
1763129347812,1.3142579,3.4109688,8.830712,-0.09636392,-0.18539746,-0.04780017,0.14749949,-0.13010368,-0.30575112,-16.612501,4.125,-27.525002
1763129347820,1.3142579,3.4109688,8.830712,-0.09636392,-0.18539746,-0.04780017,0.14749949,-0.13010368,-0.30575112,-15.712501,4.3125,-29.41875
1763129347821,1.3142579,3.4109688,8.830712,-0.09636392,-0.18539746,-0.04780017,0.1460308,-0.13151994,-0.3066572,-15.712501,4.3125,-29.41875
1763129347832,1.3142579,3.4109688,8.830712,-0.1631009,-0.19028437,-0.0151189035,0.1460308,-0.13151994,-0.3066572,-15.712501,4.3125,-29.41875
1763129347833,1.3657036,3.4247274,8.85464,-0.1631009,-0.19028437,-0.0151189035,0.1460308,-0.13151994,-0.3066572,-15.712501,4.3125,-29.41875
1763129347837,1.3657036,3.4247274,8.85464,-0.1631009,-0.19028437,-0.0151189035,0.14387164,-0.13279383,-0.30737513,-15.712501,4.3125,-29.41875
1763129347838,1.3657036,3.4247274,8.85464,-0.1631009,-0.19028437,-0.0151189035,0.14387164,-0.13279383,-0.30737513,-14.231251,5.30625,-29.1
1763129347853,1.3657036,3.4247274,8.85464,-0.20662501,-0.20616686,-0.0033597562,0.14387164,-0.13279383,-0.30737513,-14.231251,5.30625,-29.1
1763129347855,1.4356936,3.3882368,9.022138,-0.20662501,-0.20616686,-0.0033597562,0.14387164,-0.13279383,-0.30737513,-14.231251,5.30625,-29.1
1763129347858,1.4356936,3.3882368,9.022138,-0.20662501,-0.20616686,-0.0033597562,0.14387164,-0.13279383,-0.30737513,-14.625001,5.3812504,-28.331251
1763129347859,1.4356936,3.3882368,9.022138,-0.20662501,-0.20616686,-0.0033597562,0.14122948,-0.13410312,-0.3080481,-14.625001,5.3812504,-28.331251
1763129347874,1.4356936,3.3882368,9.022138,-0.16798781,-0.32833982,-0.033902995,0.14122948,-0.13410312,-0.3080481,-14.625001,5.3812504,-28.331251
1763129347875,1.5014962,3.3786657,9.201599,-0.16798781,-0.32833982,-0.033902995,0.14122948,-0.13410312,-0.3080481,-14.625001,5.3812504,-28.331251
1763129347878,1.5014962,3.3786657,9.201599,-0.16798781,-0.32833982,-0.033902995,0.14122948,-0.13410312,-0.3080481,-14.156251,6.3,-26.925001
1763129347879,1.5014962,3.3786657,9.201599,-0.16798781,-0.32833982,-0.033902995,0.13859424,-0.13667838,-0.30916023,-14.156251,6.3,-26.925001
1763129347895,1.5014962,3.3786657,9.201599,-0.047952887,-0.58307046,-0.091477,0.13859424,-0.13667838,-0.30916023,-14.156251,6.3,-26.925001
1763129347897,1.5954145,3.2889347,9.199206,-0.047952887,-0.58307046,-0.091477,0.13859424,-0.13667838,-0.30916023,-14.156251,6.3,-26.925001
1763129347898,1.5954145,3.2889347,9.199206,-0.047952887,-0.58307046,-0.091477,0.13859424,-0.13667838,-0.30916023,-15.7875,5.4375,-28.5375
1763129347916,1.5954145,3.2889347,9.199206,0.022449281,-0.73028886,-0.16584979,0.13859424,-0.13667838,-0.30916023,-15.7875,5.4375,-28.5375
1763129347918,1.7814565,3.2721848,9.147162,0.022449281,-0.73028886,-0.16584979,0.13859424,-0.13667838,-0.30916023,-15.7875,5.4375,-28.5375
1763129347919,1.7814565,3.2721848,9.147162,0.022449281,-0.73028886,-0.16584979,0.13639238,-0.14170597,-0.31162283,-15.7875,5.4375,-28.5375
1763129347920,1.7814565,3.2721848,9.147162,0.022449281,-0.73028886,-0.16584979,0.13431574,-0.14821582,-0.31509373,-15.7875,5.4375,-28.5375
1763129347921,1.7814565,3.2721848,9.147162,0.022449281,-0.73028886,-0.16584979,0.13431574,-0.14821582,-0.31509373,-15.431251,5.5125003,-27.69375
1763129347938,1.7814565,3.2721848,9.147162,0.028252495,-0.72097313,-0.21792601,0.13431574,-0.14821582,-0.31509373,-15.431251,5.5125003,-27.69375
1763129347939,2.015953,3.2386854,9.099306,0.028252495,-0.72097313,-0.21792601,0.13431574,-0.14821582,-0.31509373,-15.431251,5.5125003,-27.69375
1763129347940,2.015953,3.2386854,9.099306,0.028252495,-0.72097313,-0.21792601,0.13233663,-0.15466565,-0.31888035,-15.431251,5.5125003,-27.69375
1763129347943,2.015953,3.2386854,9.099306,0.028252495,-0.72097313,-0.21792601,0.13233663,-0.15466565,-0.31888035,-15.825001,5.5875,-27.225
1763129347959,2.015953,3.2386854,9.099306,0.045051277,-0.67103493,-0.26618433,0.13233663,-0.15466565,-0.31888035,-15.825001,5.5875,-27.225
1763129347960,2.015953,3.2386854,9.099306,0.045051277,-0.67103493,-0.26618433,0.1306376,-0.16077434,-0.32278076,-15.825001,5.5875,-27.225
1763129347961,2.015953,3.2386854,9.099306,0.045051277,-0.67103493,-0.26618433,0.1306376,-0.16077434,-0.32278076,-15.731251,7.36875,-27.525002
1763129347963,2.11705,3.2015967,8.974281,0.045051277,-0.67103493,-0.26618433,0.1306376,-0.16077434,-0.32278076,-15.731251,7.36875,-27.525002
1763129347978,2.11705,3.2015967,8.974281,0.045051277,-0.67103493,-0.26618433,0.1306376,-0.16077434,-0.32278076,-17.2875,5.1000004,-26.325
1763129347979,2.11705,3.2015967,8.974281,0.045051277,-0.67103493,-0.26618433,0.12932266,-0.16735527,-0.32692116,-17.2875,5.1000004,-26.325
1763129347981,2.11705,3.2015967,8.974281,0.098654665,-0.7055488,-0.297033,0.12932266,-0.16735527,-0.32692116,-17.2875,5.1000004,-26.325
1763129347982,2.1966112,3.1680973,8.839087,0.098654665,-0.7055488,-0.297033,0.12932266,-0.16735527,-0.32692116,-17.2875,5.1000004,-26.325
1763129347997,2.1966112,3.1680973,8.839087,0.098654665,-0.7055488,-0.297033,0.12932266,-0.16735527,-0.32692116,-17.19375,6.0750003,-27.000002
1763129348001,2.1966112,3.1680973,8.839087,0.16142102,-0.72830355,-0.28512114,0.12932266,-0.16735527,-0.32692116,-17.19375,6.0750003,-27.000002
1763129348002,2.1966112,3.1680973,8.839087,0.16142102,-0.72830355,-0.28512114,0.12844253,-0.17435427,-0.33090392,-17.19375,6.0750003,-27.000002
1763129348003,2.3814569,3.1477582,8.751749,0.16142102,-0.72830355,-0.28512114,0.12844253,-0.17435427,-0.33090392,-17.19375,6.0750003,-27.000002
1763129348019,2.3814569,3.1477582,8.751749,0.16142102,-0.72830355,-0.28512114,0.12844253,-0.17435427,-0.33090392,-18.16875,5.0437503,-27.768751
1763129348022,2.3814569,3.1477582,8.751749,0.16142102,-0.72830355,-0.28512114,0.12846665,-0.18157427,-0.33498865,-18.16875,5.0437503,-27.768751
1763129348023,2.3814569,3.1477582,8.751749,0.25717407,-0.71410096,-0.32971427,0.12846665,-0.18157427,-0.33498865,-18.16875,5.0437503,-27.768751
1763129348024,2.6685956,3.1357942,8.662018,0.25717407,-0.71410096,-0.32971427,0.12846665,-0.18157427,-0.33498865,-18.16875,5.0437503,-27.768751
1763129348038,2.6685956,3.1357942,8.662018,0.25717407,-0.71410096,-0.32971427,0.12846665,-0.18157427,-0.33498865,-16.931252,5.1937504,-26.23125
1763129348041,2.6685956,3.1357942,8.662018,0.28405213,-0.6627883,-0.4243983,0.12846665,-0.18157427,-0.33498865,-16.931252,5.1937504,-26.23125
1763129348042,2.6685956,3.1357942,8.662018,0.28405213,-0.6627883,-0.4243983,0.12892535,-0.18849966,-0.33949235,-16.931252,5.1937504,-26.23125
1763129348044,2.7481568,3.3128629,8.432307,0.28405213,-0.6627883,-0.4243983,0.12892535,-0.18849966,-0.33949235,-16.931252,5.1937504,-26.23125
1763129348059,2.7481568,3.3128629,8.432307,0.28405213,-0.6627883,-0.4243983,0.12892535,-0.18849966,-0.33949235,-17.15625,5.775,-25.706251
1763129348063,2.4293132,3.6550367,8.400003,0.28405213,-0.6627883,-0.4243983,0.12892535,-0.18849966,-0.33949235,-17.15625,5.775,-25.706251
1763129348064,2.4293132,3.6550367,8.400003,0.15363249,-0.6317869,-0.43340856,0.12892535,-0.18849966,-0.33949235,-17.15625,5.775,-25.706251
1763129348065,2.4293132,3.6550367,8.400003,0.15363249,-0.6317869,-0.43340856,0.12861687,-0.19475447,-0.3439211,-17.15625,5.775,-25.706251
1763129348077,2.4293132,3.6550367,8.400003,0.15363249,-0.6317869,-0.43340856,0.12861687,-0.19475447,-0.3439211,-17.175001,5.775,-24.937502
1763129348083,2.4293132,3.6550367,8.400003,0.15363249,-0.6317869,-0.43340856,0.12725629,-0.2000729,-0.34829223,-17.175001,5.775,-24.937502
1763129348084,2.4293132,3.6550367,8.400003,-0.013744458,-0.63056517,-0.3515527,0.12725629,-0.2000729,-0.34829223,-17.175001,5.775,-24.937502
1763129348085,2.4023938,3.8907297,8.5681,-0.013744458,-0.63056517,-0.3515527,0.12725629,-0.2000729,-0.34829223,-17.175001,5.775,-24.937502
1763129348097,2.4023938,3.8907297,8.5681,-0.013744458,-0.63056517,-0.3515527,0.12725629,-0.2000729,-0.34829223,-17.56875,4.3875003,-26.062502
1763129348105,2.4023938,3.8907297,8.5681,-0.043524116,-0.6388118,-0.2762636,0.12725629,-0.2000729,-0.34829223,-17.56875,4.3875003,-26.062502
1763129348106,2.6512475,3.8590248,8.790034,-0.043524116,-0.6388118,-0.2762636,0.12725629,-0.2000729,-0.34829223,-17.56875,4.3875003,-26.062502
1763129348118,2.6512475,3.8590248,8.790034,-0.043524116,-0.6388118,-0.2762636,0.12725629,-0.2000729,-0.34829223,-18.056252,4.125,-25.218752
1763129348126,2.6512475,3.8590248,8.790034,0.047494736,-0.5548179,-0.26450446,0.12725629,-0.2000729,-0.34829223,-18.056252,4.125,-25.218752
1763129348127,2.9515467,3.7567315,8.885747,0.047494736,-0.5548179,-0.26450446,0.12725629,-0.2000729,-0.34829223,-18.056252,4.125,-25.218752
1763129348139,2.9515467,3.7567315,8.885747,0.047494736,-0.5548179,-0.26450446,0.12517765,-0.20556724,-0.3519051,-18.056252,4.125,-25.218752
1763129348140,2.9515467,3.7567315,8.885747,0.047494736,-0.5548179,-0.26450446,0.12419525,-0.21061558,-0.35508707,-18.056252,4.125,-25.218752
1763129348140,2.9515467,3.7567315,8.885747,0.047494736,-0.5548179,-0.26450446,0.12419525,-0.21061558,-0.35508707,-18.46875,4.3500004,-24.956251
1763129348147,2.9515467,3.7567315,8.885747,0.14752385,-0.40576693,-0.26358816,0.12419525,-0.21061558,-0.35508707,-18.46875,4.3500004,-24.956251
1763129348147,2.7242286,3.7938204,8.720642,0.14752385,-0.40576693,-0.26358816,0.12419525,-0.21061558,-0.35508707,-18.46875,4.3500004,-24.956251
1763129348157,2.7242286,3.7938204,8.720642,0.14752385,-0.40576693,-0.26358816,0.12464396,-0.2146476,-0.35781106,-18.46875,4.3500004,-24.956251
1763129348158,2.7242286,3.7938204,8.720642,0.14752385,-0.40576693,-0.26358816,0.12464396,-0.2146476,-0.35781106,-18.69375,4.14375,-25.10625
1763129348167,2.7242286,3.7938204,8.720642,0.18127412,-0.30039275,-0.17363831,0.12464396,-0.2146476,-0.35781106,-18.69375,4.14375,-25.10625
1763129348168,2.519044,3.9116669,8.596813,0.18127412,-0.30039275,-0.17363831,0.12464396,-0.2146476,-0.35781106,-18.69375,4.14375,-25.10625
1763129348177,2.519044,3.9116669,8.596813,0.18127412,-0.30039275,-0.17363831,0.12562491,-0.2178848,-0.3595186,-18.69375,4.14375,-25.10625
1763129348178,2.519044,3.9116669,8.596813,0.18127412,-0.30039275,-0.17363831,0.12562491,-0.2178848,-0.3595186,-19.1625,3.075,-24.056252
1763129348189,2.519044,3.9116669,8.596813,0.1452331,-0.24709481,-0.046273008,0.12562491,-0.2178848,-0.3595186,-19.1625,3.075,-24.056252
1763129348190,2.6685956,3.9768713,8.422736,0.1452331,-0.24709481,-0.046273008,0.12562491,-0.2178848,-0.3595186,-19.1625,3.075,-24.056252
1763129348198,2.6685956,3.9768713,8.422736,0.1452331,-0.24709481,-0.046273008,0.12622008,-0.22061601,-0.36006886,-19.1625,3.075,-24.056252
1763129348199,2.6685956,3.9768713,8.422736,0.1452331,-0.24709481,-0.046273008,0.12622008,-0.22061601,-0.36006886,-21.50625,1.7437501,-23.79375
1763129348211,2.6685956,3.9768713,8.422736,0.11713332,-0.21563527,0.0044287695,0.12622008,-0.22061601,-0.36006886,-21.50625,1.7437501,-23.79375
1763129348212,3.028117,3.9146578,8.349754,0.11713332,-0.21563527,0.0044287695,0.12622008,-0.22061601,-0.36006886,-21.50625,1.7437501,-23.79375
1763129348220,3.028117,3.9146578,8.349754,0.11713332,-0.21563527,0.0044287695,0.12657276,-0.22304483,-0.3600934,-21.50625,1.7437501,-23.79375
1763129348221,3.028117,3.9146578,8.349754,0.11713332,-0.21563527,0.0044287695,0.12657276,-0.22304483,-0.3600934,-20.025002,2.8875,-23.962502
1763129348230,3.028117,3.9146578,8.349754,0.11957678,-0.17241658,-0.017715078,0.12657276,-0.22304483,-0.3600934,-20.025002,2.8875,-23.962502
1763129348231,3.2715867,3.7950168,8.338388,0.11957678,-0.17241658,-0.017715078,0.12657276,-0.22304483,-0.3600934,-20.025002,2.8875,-23.962502
1763129348237,3.2715867,3.7950168,8.338388,0.11957678,-0.17241658,-0.017715078,0.1271299,-0.22510621,-0.3601741,-20.025002,2.8875,-23.962502
1763129348238,3.2715867,3.7950168,8.338388,0.11957678,-0.17241658,-0.017715078,0.1271299,-0.22510621,-0.3601741,-20.79375,3.6562502,-24.54375
1763129348251,3.2715867,3.7950168,8.338388,0.12873976,-0.110108376,-0.07422007,0.1271299,-0.22510621,-0.3601741,-20.79375,3.6562502,-24.54375
1763129348252,3.3230324,3.7196429,8.269595,0.12873976,-0.110108376,-0.07422007,0.1271299,-0.22510621,-0.3601741,-20.79375,3.6562502,-24.54375
1763129348257,3.3230324,3.7196429,8.269595,0.12873976,-0.110108376,-0.07422007,0.12808934,-0.2265742,-0.36064288,-20.79375,3.6562502,-24.54375
1763129348258,3.3230324,3.7196429,8.269595,0.12873976,-0.110108376,-0.07422007,0.12808934,-0.2265742,-0.36064288,-20.325,3.9375002,-24.018751
1763129348273,3.3230324,3.7196429,8.269595,0.0971275,-0.07788526,-0.082924895,0.12808934,-0.2265742,-0.36064288,-20.325,3.9375002,-24.018751
1763129348273,3.0849466,3.7489548,8.1020975,0.0971275,-0.07788526,-0.082924895,0.12808934,-0.2265742,-0.36064288,-20.325,3.9375002,-24.018751
1763129348277,3.0849466,3.7489548,8.1020975,0.0971275,-0.07788526,-0.082924895,0.12887262,-0.22761557,-0.36122006,-20.325,3.9375002,-24.018751
1763129348278,3.0849466,3.7489548,8.1020975,0.0971275,-0.07788526,-0.082924895,0.12887262,-0.22761557,-0.36122006,-21.075,1.5,-24.206251
1763129348294,3.0849466,3.7489548,8.1020975,0.022601997,-0.084452055,-0.032681264,0.12887262,-0.22761557,-0.36122006,-21.075,1.5,-24.206251
1763129348295,3.0293136,3.7884364,8.16132,0.022601997,-0.084452055,-0.032681264,0.12887262,-0.22761557,-0.36122006,-21.075,1.5,-24.206251
1763129348299,3.0293136,3.7884364,8.16132,0.022601997,-0.084452055,-0.032681264,0.12887262,-0.22761557,-0.36122006,-19.743752,2.775,-25.518751
1763129348300,3.0293136,3.7884364,8.16132,0.022601997,-0.084452055,-0.032681264,0.12884581,-0.22847301,-0.36154765,-19.743752,2.775,-25.518751
1763129348315,3.0293136,3.7884364,8.16132,-0.018173227,-0.12721258,-0.0030543238,0.12884581,-0.22847301,-0.36154765,-19.743752,2.775,-25.518751
1763129348316,3.2004004,3.7962132,8.2761755,-0.018173227,-0.12721258,-0.0030543238,0.12884581,-0.22847301,-0.36154765,-19.743752,2.775,-25.518751
1763129348318,3.2004004,3.7962132,8.2761755,-0.018173227,-0.12721258,-0.0030543238,0.12821057,-0.22959898,-0.36177915,-19.743752,2.775,-25.518751
1763129348319,3.2004004,3.7962132,8.2761755,-0.018173227,-0.12721258,-0.0030543238,0.12821057,-0.22959898,-0.36177915,-20.6625,2.0812502,-24.843752
1763129348337,3.2004004,3.7962132,8.2761755,-0.025503604,-0.11514801,-0.031917684,0.12821057,-0.22959898,-0.36177915,-20.6625,2.0812502,-24.843752
1763129348338,3.4109688,3.8476589,8.377871,-0.025503604,-0.11514801,-0.031917684,0.12821057,-0.22959898,-0.36177915,-20.6625,2.0812502,-24.843752
1763129348339,3.4109688,3.8476589,8.377871,-0.025503604,-0.11514801,-0.031917684,0.1276039,-0.23056346,-0.36225978,-20.6625,2.0812502,-24.843752
1763129348341,3.4109688,3.8476589,8.377871,-0.025503604,-0.11514801,-0.031917684,0.1276039,-0.23056346,-0.36225978,-19.725,4.21875,-24.843752
1763129348358,3.4109688,3.8476589,8.377871,-0.025503604,-0.11514801,-0.031917684,0.12766735,-0.23111184,-0.3629954,-19.725,4.21875,-24.843752
1763129348359,3.2446675,3.8350966,8.49811,-0.025503604,-0.11514801,-0.031917684,0.12766735,-0.23111184,-0.3629954,-19.725,4.21875,-24.843752
1763129348361,3.2446675,3.8350966,8.49811,0.011606431,-0.059712034,-0.08155045,0.12766735,-0.23111184,-0.3629954,-19.725,4.21875,-24.843752
1763129348362,3.2446675,3.8350966,8.49811,0.011606431,-0.059712034,-0.08155045,0.12766735,-0.23111184,-0.3629954,-18.675001,4.14375,-25.556252
1763129348379,3.2446675,3.8350966,8.49811,0.092546016,-0.03649917,-0.11300998,0.12766735,-0.23111184,-0.3629954,-18.675001,4.14375,-25.556252
1763129348380,3.2446675,3.8350966,8.49811,0.092546016,-0.03649917,-0.11300998,0.12863822,-0.2316655,-0.36387607,-18.675001,4.14375,-25.556252
1763129348382,3.0819557,3.851248,8.501101,0.092546016,-0.03649917,-0.11300998,0.12863822,-0.2316655,-0.36387607,-18.675001,4.14375,-25.556252
1763129348383,3.0819557,3.851248,8.501101,0.092546016,-0.03649917,-0.11300998,0.12863822,-0.2316655,-0.36387607,-19.800001,2.4375,-25.893751
1763129348399,3.0819557,3.851248,8.501101,0.13530655,-0.06291907,-0.123547405,0.12863822,-0.2316655,-0.36387607,-19.800001,2.4375,-25.893751
1763129348400,3.0819557,3.851248,8.501101,0.13530655,-0.06291907,-0.123547405,0.12993602,-0.2325832,-0.36483777,-19.800001,2.4375,-25.893751
1763129348401,3.0819557,3.851248,8.501101,0.13530655,-0.06291907,-0.123547405,0.12993602,-0.2325832,-0.36483777,-18.975,3.45,-24.093752
1763129348403,2.970091,3.9164524,8.289934,0.13530655,-0.06291907,-0.123547405,0.12993602,-0.2325832,-0.36483777,-18.975,3.45,-24.093752
1763129348418,2.970091,3.9164524,8.289934,0.13530655,-0.06291907,-0.123547405,0.12993602,-0.2325832,-0.36483777,-21.075,3.1125002,-24.937502
1763129348420,2.970091,3.9164524,8.289934,0.13530655,-0.06291907,-0.123547405,0.13081118,-0.23353691,-0.36570653,-21.075,3.1125002,-24.937502
1763129348422,2.970091,3.9164524,8.289934,0.098196514,-0.07925971,-0.10308343,0.13081118,-0.23353691,-0.36570653,-21.075,3.1125002,-24.937502
1763129348424,3.03709,3.984648,8.191829,0.098196514,-0.07925971,-0.10308343,0.13081118,-0.23353691,-0.36570653,-21.075,3.1125002,-24.937502
1763129348437,3.03709,3.984648,8.191829,0.098196514,-0.07925971,-0.10308343,0.13081118,-0.23353691,-0.36570653,-19.44375,2.53125,-24.750002
1763129348441,3.03709,3.984648,8.191829,0.098196514,-0.07925971,-0.10308343,0.13145952,-0.2341301,-0.36652824,-19.44375,2.53125,-24.750002
1763129348442,3.03709,3.984648,8.191829,0.062155493,-0.052381653,-0.097432934,0.13145952,-0.2341301,-0.36652824,-19.44375,2.53125,-24.750002
1763129348444,3.1728828,4.0103707,8.263015,0.062155493,-0.052381653,-0.097432934,0.13145952,-0.2341301,-0.36652824,-19.44375,2.53125,-24.750002
1763129348459,3.1728828,4.0103707,8.263015,0.062155493,-0.052381653,-0.097432934,0.13145952,-0.2341301,-0.36652824,-21.150002,1.1625,-24.45
1763129348462,3.1728828,4.0103707,8.263015,0.052381653,-0.06536253,-0.10644319,0.13145952,-0.2341301,-0.36652824,-21.150002,1.1625,-24.45
1763129348463,3.1166515,4.024728,8.292327,0.052381653,-0.06536253,-0.10644319,0.13145952,-0.2341301,-0.36652824,-21.150002,1.1625,-24.45
1763129348478,3.1166515,4.024728,8.292327,0.052381653,-0.06536253,-0.10644319,0.13145952,-0.2341301,-0.36652824,-19.5375,3.1312501,-25.556252
1763129348482,3.1166515,4.024728,8.292327,0.052381653,-0.06536253,-0.10644319,0.13206568,-0.23489831,-0.36726832,-19.5375,3.1312501,-25.556252
1763129348484,3.1166515,4.024728,8.292327,0.05054906,-0.12690715,-0.10079269,0.13206568,-0.23489831,-0.36726832,-19.5375,3.1312501,-25.556252
1763129348485,3.1070802,3.9720855,8.339585,0.05054906,-0.12690715,-0.10079269,0.13206568,-0.23489831,-0.36726832,-19.5375,3.1312501,-25.556252
1763129348486,3.1070802,3.9720855,8.339585,0.05054906,-0.12690715,-0.10079269,0.13238907,-0.23612985,-0.36823702,-19.5375,3.1312501,-25.556252
1763129348498,3.1070802,3.9720855,8.339585,0.05054906,-0.12690715,-0.10079269,0.13238907,-0.23612985,-0.36823702,-20.625,2.7375002,-25.1625
1763129348504,3.1070802,3.9720855,8.339585,0.08170316,-0.1753182,-0.118202336,0.13238907,-0.23612985,-0.36823702,-20.625,2.7375002,-25.1625
1763129348504,3.1070802,3.9720855,8.339585,0.08170316,-0.1753182,-0.118202336,0.13268457,-0.23781578,-0.36958566,-20.625,2.7375002,-25.1625
1763129348506,3.1728828,3.9511483,8.285747,0.08170316,-0.1753182,-0.118202336,0.13268457,-0.23781578,-0.36958566,-20.625,2.7375002,-25.1625
1763129348517,3.1728828,3.9511483,8.285747,0.08170316,-0.1753182,-0.118202336,0.13268457,-0.23781578,-0.36958566,-21.375,0.95625,-23.85
1763129348525,3.1728828,3.9511483,8.285747,0.08170316,-0.1753182,-0.118202336,0.13291393,-0.23933272,-0.37090155,-21.375,0.95625,-23.85
1763129348526,3.1728828,3.9511483,8.285747,0.07101303,-0.15500695,-0.12522727,0.13291393,-0.23933272,-0.37090155,-21.375,0.95625,-23.85
1763129348527,3.2285159,4.002594,8.156534,0.07101303,-0.15500695,-0.12522727,0.13291393,-0.23933272,-0.37090155,-21.375,0.95625,-23.85
1763129348538,3.2285159,4.002594,8.156534,0.07101303,-0.15500695,-0.12522727,0.13291393,-0.23933272,-0.37090155,-21.13125,1.66875,-23.0625
1763129348546,3.2285159,4.002594,8.156534,0.020005822,-0.12599087,-0.1084285,0.13291393,-0.23933272,-0.37090155,-21.13125,1.66875,-23.0625
1763129348546,3.2913275,4.060022,8.076375,0.020005822,-0.12599087,-0.1084285,0.13291393,-0.23933272,-0.37090155,-21.13125,1.66875,-23.0625
1763129348558,3.2913275,4.060022,8.076375,0.020005822,-0.12599087,-0.1084285,0.13933454,-0.23686007,-0.34779274,-21.13125,1.66875,-23.0625
1763129348559,3.2913275,4.060022,8.076375,0.020005822,-0.12599087,-0.1084285,0.13933454,-0.23686007,-0.34779274,-19.893751,3.6937501,-25.650002
1763129348566,3.2913275,4.060022,8.076375,-0.034819294,-0.089033544,-0.09376775,0.13933454,-0.23686007,-0.34779274,-19.893751,3.6937501,-25.650002
1763129348567,3.1190443,4.080361,8.12124,-0.034819294,-0.089033544,-0.09376775,0.13933454,-0.23686007,-0.34779274,-19.893751,3.6937501,-25.650002
1763129348578,3.1190443,4.080361,8.12124,-0.034819294,-0.089033544,-0.09376775,0.14006935,-0.23706847,-0.34467888,-19.893751,3.6937501,-25.650002
1763129348579,3.1190443,4.080361,8.12124,-0.034819294,-0.089033544,-0.09376775,0.14006935,-0.23706847,-0.34467888,-20.94375,2.1750002,-24.337502
1763129348587,3.1190443,4.080361,8.12124,-0.044134982,-0.12202024,-0.055435978,0.14006935,-0.23706847,-0.34467888,-20.94375,2.1750002,-24.337502
1763129348588,3.0610185,4.068995,8.239685,-0.044134982,-0.12202024,-0.055435978,0.14006935,-0.23706847,-0.34467888,-20.94375,2.1750002,-24.337502
1763129348597,3.0610185,4.068995,8.239685,-0.044134982,-0.12202024,-0.055435978,0.13634624,-0.23980254,-0.35749668,-20.94375,2.1750002,-24.337502
1763129348598,3.0610185,4.068995,8.239685,-0.044134982,-0.12202024,-0.055435978,0.13634624,-0.23980254,-0.35749668,-21.487501,2.3812501,-24.112501
1763129348608,3.0610185,4.068995,8.239685,-0.019089524,-0.120034926,-0.041996952,0.13634624,-0.23980254,-0.35749668,-21.487501,2.3812501,-24.112501
1763129348609,3.2237303,4.080361,8.213962,-0.019089524,-0.120034926,-0.041996952,0.13634624,-0.23980254,-0.35749668,-21.487501,2.3812501,-24.112501
1763129348620,3.2237303,4.080361,8.213962,-0.019089524,-0.120034926,-0.041996952,0.13807891,-0.23937999,-0.35041308,-21.487501,2.3812501,-24.112501
1763129348621,3.2237303,4.080361,8.213962,-0.019089524,-0.120034926,-0.041996952,0.13807891,-0.23937999,-0.35041308,-21.075,1.5,-24.206251
1763129348630,3.2237303,4.080361,8.213962,0.004734202,-0.057726722,-0.052381653,0.13807891,-0.23937999,-0.35041308,-21.075,1.5,-24.206251
1763129348631,3.2416766,4.089932,8.183454,0.004734202,-0.057726722,-0.052381653,0.13807891,-0.23937999,-0.35041308,-21.075,1.5,-24.206251
1763129348638,3.2416766,4.089932,8.183454,0.004734202,-0.057726722,-0.052381653,0.13776688,-0.24008888,-0.35228854,-21.075,1.5,-24.206251
1763129348639,3.2416766,4.089932,8.183454,0.004734202,-0.057726722,-0.052381653,0.13776688,-0.24008888,-0.35228854,-18.150002,6.3562503,-25.3875
1763129348650,3.2416766,4.089932,8.183454,0.0067195124,-0.048258316,-0.046883874,0.13776688,-0.24008888,-0.35228854,-18.150002,6.3562503,-25.3875
1763129348651,3.0610185,4.1072803,8.152945,0.0067195124,-0.048258316,-0.046883874,0.13776688,-0.24008888,-0.35228854,-18.150002,6.3562503,-25.3875
1763129348658,3.0610185,4.1072803,8.152945,0.0067195124,-0.048258316,-0.046883874,0.13968825,-0.23950125,-0.34592786,-18.150002,6.3562503,-25.3875
1763129348659,3.0610185,4.1072803,8.152945,0.0067195124,-0.048258316,-0.046883874,0.13968825,-0.23950125,-0.34592786,-20.90625,2.025,-24.900002
1763129348672,3.0610185,4.1072803,8.152945,-0.0129808765,-0.09911281,-0.017715078,0.13968825,-0.23950125,-0.34592786,-20.90625,2.025,-24.900002
1763129348673,3.138187,4.101298,8.181659,-0.0129808765,-0.09911281,-0.017715078,0.13968825,-0.23950125,-0.34592786,-20.90625,2.025,-24.900002
1763129348677,3.138187,4.101298,8.181659,-0.0129808765,-0.09911281,-0.017715078,0.1417723,-0.23883834,-0.3378387,-20.90625,2.025,-24.900002
1763129348678,3.138187,4.101298,8.181659,-0.0129808765,-0.09911281,-0.017715078,0.1417723,-0.23883834,-0.3378387,-20.175001,3.0,-24.937502
1763129348695,3.138187,4.101298,8.181659,-0.03008509,-0.10598504,-0.0058032153,0.1417723,-0.23883834,-0.3378387,-20.175001,3.0,-24.937502
1763129348696,3.185445,4.098307,8.218149,-0.03008509,-0.10598504,-0.0058032153,0.1417723,-0.23883834,-0.3378387,-20.175001,3.0,-24.937502
1763129348699,3.185445,4.098307,8.218149,-0.03008509,-0.10598504,-0.0058032153,0.14184281,-0.23928298,-0.3361827,-20.175001,3.0,-24.937502
1763129348700,3.185445,4.098307,8.218149,-0.03008509,-0.10598504,-0.0058032153,0.14184281,-0.23928298,-0.3361827,-20.0625,2.8875,-22.462502
1763129348713,3.185445,4.098307,8.218149,-0.021838415,-0.06780599,0.0019853106,0.14184281,-0.23928298,-0.3361827,-20.0625,2.8875,-22.462502
1763129348714,3.2943187,4.1288157,8.356933,-0.021838415,-0.06780599,0.0019853106,0.14184281,-0.23928298,-0.3361827,-20.0625,2.8875,-22.462502
1763129348720,3.2943187,4.1288157,8.356933,-0.021838415,-0.06780599,0.0019853106,0.14216892,-0.23937042,-0.33396313,-20.0625,2.8875,-22.462502
1763129348721,3.2943187,4.1288157,8.356933,-0.021838415,-0.06780599,0.0019853106,0.14216892,-0.23937042,-0.33396313,-21.09375,3.1125002,-23.4375
1763129348734,3.3116665,4.085745,8.309675,-0.021838415,-0.06780599,0.0019853106,0.14216892,-0.23937042,-0.33396313,-21.09375,3.1125002,-23.4375
1763129348736,3.3116665,4.085745,8.309675,0.028710645,-0.056046844,-4.581486E-4,0.14216892,-0.23937042,-0.33396313,-21.09375,3.1125002,-23.4375
1763129348740,3.3116665,4.085745,8.309675,0.028710645,-0.056046844,-4.581486E-4,0.14205907,-0.24007657,-0.3348398,-21.09375,3.1125002,-23.4375
1763129348741,3.3116665,4.085745,8.309675,0.028710645,-0.056046844,-4.581486E-4,0.14205907,-0.24007657,-0.3348398,-19.575,3.15,-23.2875
1763129348755,3.3116665,4.085745,8.309675,0.058795735,-0.08781181,-0.021685699,0.14205907,-0.24007657,-0.3348398,-19.575,3.15,-23.2875
1763129348756,3.3080773,4.005585,8.11466,0.058795735,-0.08781181,-0.021685699,0.14205907,-0.24007657,-0.3348398,-19.575,3.15,-23.2875
1763129348758,3.3080773,4.005585,8.11466,0.058795735,-0.08781181,-0.021685699,0.14261964,-0.24086593,-0.33395752,-19.575,3.15,-23.2875
1763129348759,3.3080773,4.005585,8.11466,0.058795735,-0.08781181,-0.021685699,0.14261964,-0.24086593,-0.33395752,-20.7,2.25,-23.681252
1763129348776,3.3080773,4.005585,8.11466,0.043371398,-0.07391464,-0.03405571,0.14261964,-0.24086593,-0.33395752,-20.7,2.25,-23.681252
1763129348778,3.4139597,4.045665,8.049456,0.043371398,-0.07391464,-0.03405571,0.14261964,-0.24086593,-0.33395752,-20.7,2.25,-23.681252
1763129348780,3.4139597,4.045665,8.049456,0.043371398,-0.07391464,-0.03405571,0.1419633,-0.24219704,-0.33733958,-20.7,2.25,-23.681252
1763129348781,3.4139597,4.045665,8.049456,0.043371398,-0.07391464,-0.03405571,0.1419633,-0.24219704,-0.33733958,-19.800001,3.075,-25.1625
1763129348798,3.522235,4.078566,8.073383,0.043371398,-0.07391464,-0.03405571,0.1419633,-0.24219704,-0.33733958,-19.800001,3.075,-25.1625
1763129348799,3.522235,4.078566,8.073383,0.04856375,0.0058032153,-0.049480047,0.1419633,-0.24219704,-0.33733958,-19.800001,3.075,-25.1625
1763129348801,3.522235,4.078566,8.073383,0.04856375,0.0058032153,-0.049480047,0.14332439,-0.24201156,-0.3345434,-19.800001,3.075,-25.1625
1763129348802,3.522235,4.078566,8.073383,0.04856375,0.0058032153,-0.049480047,0.14332439,-0.24201156,-0.3345434,-22.2,0.6,-25.2
1763129348820,3.522235,4.078566,8.073383,0.08964441,0.0377209,-0.0820086,0.14332439,-0.24201156,-0.3345434,-22.2,0.6,-25.2
1763129348821,3.522235,4.078566,8.073383,0.08964441,0.0377209,-0.0820086,0.14332439,-0.24201156,-0.3345434,-21.54375,2.04375,-25.237501
1763129348823,3.522235,4.078566,8.073383,0.08964441,0.0377209,-0.0820086,0.14464663,-0.24208301,-0.3338868,-21.54375,2.04375,-25.237501
1763129348825,3.391228,4.058227,8.181659,0.08964441,0.0377209,-0.0820086,0.14464663,-0.24208301,-0.3338868,-21.54375,2.04375,-25.237501
1763129348837,3.391228,4.058227,8.181659,0.08964441,0.0377209,-0.0820086,0.14464663,-0.24208301,-0.3338868,-21.6,0.75,-24.468752
1763129348839,3.391228,4.058227,8.181659,0.08964441,0.0377209,-0.0820086,0.1449191,-0.24348544,-0.33713698,-21.6,0.75,-24.468752
1763129348840,3.391228,4.058227,8.181659,0.12568542,-0.058795735,-0.082466744,0.1449191,-0.24348544,-0.33713698,-21.6,0.75,-24.468752
1763129348841,3.214159,4.0977087,8.100901,0.12568542,-0.058795735,-0.082466744,0.1449191,-0.24348544,-0.33713698,-21.6,0.75,-24.468752
1763129348863,3.214159,4.0977087,8.100901,0.12568542,-0.058795735,-0.082466744,0.1449191,-0.24348544,-0.33713698,-22.40625,0.24375,-23.8125
1763129348864,3.214159,4.0977087,8.100901,0.12568542,-0.058795735,-0.082466744,0.14544937,-0.24426977,-0.3397917,-22.40625,0.24375,-23.8125
1763129348865,3.214159,4.0977087,8.100901,0.11575887,-0.01924224,-0.057115857,0.14544937,-0.24426977,-0.3397917,-22.40625,0.24375,-23.8125
1763129348866,3.3086755,4.173083,8.026724,0.11575887,-0.01924224,-0.057115857,0.14544937,-0.24426977,-0.3397917,-22.40625,0.24375,-23.8125
1763129348878,3.3086755,4.173083,8.026724,0.11575887,-0.01924224,-0.057115857,0.14544937,-0.24426977,-0.3397917,-22.1625,1.8937501,-24.6375
1763129348881,3.3086755,4.173083,8.026724,0.11575887,-0.01924224,-0.057115857,0.14750458,-0.2430678,-0.33658016,-22.1625,1.8937501,-24.6375
1763129348881,3.3086755,4.173083,8.026724,0.07055488,0.108886644,-0.03604102,0.14750458,-0.2430678,-0.33658016,-22.1625,1.8937501,-24.6375
1763129348882,3.3290145,4.112066,7.9746795,0.07055488,0.108886644,-0.03604102,0.14750458,-0.2430678,-0.33658016,-22.1625,1.8937501,-24.6375
1763129348898,3.3290145,4.112066,7.9746795,0.07055488,0.108886644,-0.03604102,0.14750458,-0.2430678,-0.33658016,-25.125002,-0.675,-20.1375
1763129348902,3.3290145,4.112066,7.9746795,9.162972E-4,0.033902995,-0.041691523,0.14750458,-0.2430678,-0.33658016,-25.125002,-0.675,-20.1375
1763129348903,3.3290145,4.112066,7.9746795,9.162972E-4,0.033902995,-0.041691523,0.14768338,-0.24289665,-0.33692658,-25.125002,-0.675,-20.1375
1763129348903,3.4504502,4.0995035,8.109874,9.162972E-4,0.033902995,-0.041691523,0.14768338,-0.24289665,-0.33692658,-25.125002,-0.675,-20.1375
1763129348917,3.4504502,4.0995035,8.109874,9.162972E-4,0.033902995,-0.041691523,0.14768338,-0.24289665,-0.33692658,-22.3125,2.68125,-23.5125
1763129348923,3.4504502,4.0995035,8.109874,-0.027030766,-0.020158539,-0.06887501,0.14768338,-0.24289665,-0.33692658,-22.3125,2.68125,-23.5125
1763129348924,3.4504502,4.0995035,8.109874,-0.027030766,-0.020158539,-0.06887501,0.14721277,-0.24321559,-0.3380202,-22.3125,2.68125,-23.5125
1763129348925,3.4055848,4.126423,8.242676,-0.027030766,-0.020158539,-0.06887501,0.14721277,-0.24321559,-0.3380202,-22.3125,2.68125,-23.5125
1763129348937,3.4055848,4.126423,8.242676,-0.027030766,-0.020158539,-0.06887501,0.14721277,-0.24321559,-0.3380202,-21.768751,3.43125,-25.518751
1763129348945,3.4055848,4.126423,8.242676,-0.027030766,-0.020158539,-0.06887501,0.14676371,-0.24341987,-0.3395121,-21.768751,3.43125,-25.518751
1763129348946,3.0616167,4.1718864,8.038688,-0.027030766,-0.020158539,-0.06887501,0.14676371,-0.24341987,-0.3395121,-21.768751,3.43125,-25.518751
1763129348947,3.0616167,4.1718864,8.038688,-0.022754714,-0.022143848,-0.084757484,0.14676371,-0.24341987,-0.3395121,-21.768751,3.43125,-25.518751
1763129348958,3.0616167,4.1718864,8.038688,-0.022754714,-0.022143848,-0.084757484,0.14676371,-0.24341987,-0.3395121,-19.44375,4.93125,-26.1375
1763129348965,3.0616167,4.1718864,8.038688,-0.080176,-0.04856375,-0.01282816,0.14676371,-0.24341987,-0.3395121,-19.44375,4.93125,-26.1375
1763129348966,2.879762,4.3148575,7.948957,-0.080176,-0.04856375,-0.01282816,0.14676371,-0.24341987,-0.3395121,-19.44375,4.93125,-26.1375
1763129348991,2.879762,4.3148575,7.948957,-0.080176,-0.04856375,-0.01282816,0.14754775,-0.24248227,-0.3346441,-19.44375,4.93125,-26.1375
1763129348992,2.879762,4.3148575,7.948957,-0.080176,-0.04856375,-0.01282816,0.14754775,-0.24248227,-0.3346441,-21.09375,1.66875,-24.862501
1763129348992,2.879762,4.3148575,7.948957,-0.091018856,0.15867212,0.062613636,0.14754775,-0.24248227,-0.3346441,-21.09375,1.66875,-24.862501
1763129348993,3.12383,4.3854456,7.856833,-0.091018856,0.15867212,0.062613636,0.14754775,-0.24248227,-0.3346441,-21.09375,1.66875,-24.862501
