timestamp,accX,accY,accZ,gyroX,gyroY,gyroZ,rotX,rotY,rotZ,magX,magY,magZ
1763129285633,-8.007581,5.1236315,1.5332011,0.16340633,-1.1136065,-0.14828743,0.46230245,0.03764379,-0.67809373,21.69375,-16.63125,-24.150002
1763129285634,-7.507481,4.6115675,-0.104087785,0.16340633,-1.1136065,-0.14828743,0.46230245,0.03764379,-0.67809373,21.69375,-16.63125,-24.150002
1763129285638,-7.507481,4.6115675,-0.104087785,0.16340633,-1.1136065,-0.14828743,0.45612007,0.032567516,-0.6817748,21.69375,-16.63125,-24.150002
1763129285638,-7.507481,4.6115675,-0.104087785,0.16340633,-1.1136065,-0.14828743,0.45612007,0.032567516,-0.6817748,18.6375,-19.10625,-23.79375
1763129285654,-7.507481,4.6115675,-0.104087785,-0.5882628,-2.00272,0.014813471,0.45612007,0.032567516,-0.6817748,18.6375,-19.10625,-23.79375
1763129285655,-7.242476,4.365705,4.2717867,-0.5882628,-2.00272,0.014813471,0.45612007,0.032567516,-0.6817748,18.6375,-19.10625,-23.79375
1763129285660,-7.242476,4.365705,4.2717867,-0.5882628,-2.00272,0.014813471,0.43927956,0.027462767,-0.68720853,18.6375,-19.10625,-23.79375
1763129285661,-7.242476,4.365705,4.2717867,-0.5882628,-2.00272,0.014813471,0.43927956,0.027462767,-0.68720853,10.5375,-20.775002,-19.06875
1763129285675,-5.4317074,4.281358,10.065409,-0.5882628,-2.00272,0.014813471,0.43927956,0.027462767,-0.68720853,10.5375,-20.775002,-19.06875
1763129285676,-5.4317074,4.281358,10.065409,-0.4987711,-1.7838778,0.032375835,0.43927956,0.027462767,-0.68720853,10.5375,-20.775002,-19.06875
1763129285677,-5.4317074,4.281358,10.065409,-0.4987711,-1.7838778,0.032375835,0.4237567,0.021245247,-0.6935795,10.5375,-20.775002,-19.06875
1763129285677,-5.4317074,4.281358,10.065409,-0.4987711,-1.7838778,0.032375835,0.4237567,0.021245247,-0.6935795,18.5625,-16.893751,-25.1625
1763129285697,-5.4317074,4.281358,10.065409,0.022907428,-0.77427113,-0.0876591,0.4237567,0.021245247,-0.6935795,18.5625,-16.893751,-25.1625
1763129285698,-5.487939,3.6430724,10.599008,0.022907428,-0.77427113,-0.0876591,0.4237567,0.021245247,-0.6935795,18.5625,-16.893751,-25.1625
1763129285699,-5.487939,3.6430724,10.599008,0.022907428,-0.77427113,-0.0876591,0.41750786,0.016017323,-0.69871813,18.5625,-16.893751,-25.1625
1763129285700,-5.487939,3.6430724,10.599008,0.022907428,-0.77427113,-0.0876591,0.41750786,0.016017323,-0.69871813,16.0125,-18.300001,-27.35625
1763129285718,-5.487939,3.6430724,10.599008,0.31322092,-0.115453444,-0.028252495,0.41750786,0.016017323,-0.69871813,16.0125,-18.300001,-27.35625
1763129285719,-5.487939,3.6430724,10.599008,0.31322092,-0.115453444,-0.028252495,0.41771048,0.011585692,-0.70206404,16.0125,-18.300001,-27.35625
1763129285720,-5.487939,3.6430724,10.599008,0.31322092,-0.115453444,-0.028252495,0.41771048,0.011585692,-0.70206404,16.462502,-17.8875,-27.937502
1763129285720,-6.1830535,3.7920256,6.806384,0.31322092,-0.115453444,-0.028252495,0.41771048,0.011585692,-0.70206404,16.462502,-17.8875,-27.937502
1763129285739,-6.1830535,3.7920256,6.806384,0.31322092,-0.115453444,-0.028252495,0.41677815,0.008703783,-0.7033463,16.462502,-17.8875,-27.937502
1763129285740,-6.1830535,3.7920256,6.806384,0.13729186,-0.22586726,0.064904384,0.41677815,0.008703783,-0.7033463,16.462502,-17.8875,-27.937502
1763129285742,-6.373283,4.499703,3.9349968,0.13729186,-0.22586726,0.064904384,0.41677815,0.008703783,-0.7033463,16.462502,-17.8875,-27.937502
1763129285743,-6.373283,4.499703,3.9349968,0.13729186,-0.22586726,0.064904384,0.41677815,0.008703783,-0.7033463,16.931252,-17.775002,-27.375002
1763129285757,-6.373283,4.499703,3.9349968,0.13729186,-0.22586726,0.064904384,0.41677815,0.008703783,-0.7033463,16.987501,-18.075,-27.13125
1763129285760,-6.373283,4.499703,3.9349968,-0.15622866,-0.7768673,0.0368046,0.41677815,0.008703783,-0.7033463,16.987501,-18.075,-27.13125
1763129285761,-6.373283,4.499703,3.9349968,-0.15622866,-0.7768673,0.0368046,0.41059375,0.006610312,-0.7042273,16.987501,-18.075,-27.13125
1763129285762,-5.951548,4.999803,4.126423,-0.15622866,-0.7768673,0.0368046,0.41059375,0.006610312,-0.7042273,16.987501,-18.075,-27.13125
1763129285778,-5.951548,4.999803,4.126423,-0.15622866,-0.7768673,0.0368046,0.41059375,0.006610312,-0.7042273,15.656251,-17.8875,-26.212502
1763129285780,-5.966503,4.9549375,5.3922257,-0.15622866,-0.7768673,0.0368046,0.41059375,0.006610312,-0.7042273,15.656251,-17.8875,-26.212502
1763129285781,-5.966503,4.9549375,5.3922257,-0.31184646,-1.2035563,-0.06826414,0.41059375,0.006610312,-0.7042273,15.656251,-17.8875,-26.212502
1763129285782,-5.966503,4.9549375,5.3922257,-0.31184646,-1.2035563,-0.06826414,0.40029344,0.0034703272,-0.70721895,15.656251,-17.8875,-26.212502
1763129285798,-5.966503,4.9549375,5.3922257,-0.31184646,-1.2035563,-0.06826414,0.40029344,0.0034703272,-0.70721895,16.06875,-16.368752,-27.843752
1763129285801,-5.966503,4.9549375,5.3922257,-0.27794346,-1.3119848,-0.110871956,0.40029344,0.0034703272,-0.70721895,16.06875,-16.368752,-27.843752
1763129285802,-5.966503,4.9549375,5.3922257,-0.27794346,-1.3119848,-0.110871956,0.38918668,-0.0010970838,-0.7117993,16.06875,-16.368752,-27.843752
1763129285803,-5.5657053,4.6121655,7.292127,-0.27794346,-1.3119848,-0.110871956,0.38918668,-0.0010970838,-0.7117993,16.06875,-16.368752,-27.843752
1763129285819,-5.5657053,4.6121655,7.292127,-0.27794346,-1.3119848,-0.110871956,0.38918668,-0.0010970838,-0.7117993,14.400001,-17.081251,-28.1625
1763129285823,-5.4574304,3.6867416,7.5026956,-0.27794346,-1.3119848,-0.110871956,0.38918668,-0.0010970838,-0.7117993,14.400001,-17.081251,-28.1625
1763129285824,-5.4574304,3.6867416,7.5026956,-0.27794346,-1.3119848,-0.110871956,0.37922418,-0.0069524697,-0.7168318,14.400001,-17.081251,-28.1625
1763129285825,-5.4574304,3.6867416,7.5026956,-0.13377939,-1.2211187,-0.085215636,0.37922418,-0.0069524697,-0.7168318,14.400001,-17.081251,-28.1625
1763129285838,-5.4574304,3.6867416,7.5026956,-0.13377939,-1.2211187,-0.085215636,0.37922418,-0.0069524697,-0.7168318,12.88125,-18.056252,-26.681252
1763129285843,-5.4574304,3.6867416,7.5026956,-0.039858926,-1.2350159,0.050243627,0.37922418,-0.0069524697,-0.7168318,12.88125,-18.056252,-26.681252
1763129285843,-5.4574304,3.6867416,7.5026956,-0.039858926,-1.2350159,0.050243627,0.36956334,-0.014093181,-0.72124743,12.88125,-18.056252,-26.681252
1763129285844,-5.261219,4.0163527,6.6681986,-0.039858926,-1.2350159,0.050243627,0.36956334,-0.014093181,-0.72124743,12.88125,-18.056252,-26.681252
1763129285857,-5.261219,4.0163527,6.6681986,-0.039858926,-1.2350159,0.050243627,0.36956334,-0.014093181,-0.72124743,11.19375,-16.85625,-29.00625
1763129285864,-5.261219,4.0163527,6.6681986,-0.039858926,-1.2350159,0.050243627,0.35820293,-0.021170486,-0.72609836,11.19375,-16.85625,-29.00625
1763129285866,-4.7778687,4.6354957,6.0454664,-0.039858926,-1.2350159,0.050243627,0.35820293,-0.021170486,-0.72609836,11.19375,-16.85625,-29.00625
1763129285866,-4.7778687,4.6354957,6.0454664,-0.13026692,-1.4080433,-0.015577052,0.35820293,-0.021170486,-0.72609836,11.19375,-16.85625,-29.00625
1763129285878,-4.7778687,4.6354957,6.0454664,-0.13026692,-1.4080433,-0.015577052,0.35820293,-0.021170486,-0.72609836,9.712501,-17.34375,-26.906252
1763129285885,-4.7778687,4.6354957,6.0454664,-0.40500334,-1.4544691,-0.21807873,0.35820293,-0.021170486,-0.72609836,9.712501,-17.34375,-26.906252
1763129285886,-4.298706,4.8412786,6.623333,-0.40500334,-1.4544691,-0.21807873,0.35820293,-0.021170486,-0.72609836,9.712501,-17.34375,-26.906252
1763129285898,-4.298706,4.8412786,6.623333,-0.40500334,-1.4544691,-0.21807873,0.3449933,-0.025124617,-0.7308722,9.712501,-17.34375,-26.906252
1763129285899,-4.298706,4.8412786,6.623333,-0.40500334,-1.4544691,-0.21807873,0.3449933,-0.025124617,-0.7308722,7.3875003,-18.056252,-26.94375
1763129285906,-4.298706,4.8412786,6.623333,-0.51908237,-1.5146393,-0.40973756,0.3449933,-0.025124617,-0.7308722,7.3875003,-18.056252,-26.94375
1763129285907,-4.082155,4.6055856,7.003194,-0.51908237,-1.5146393,-0.40973756,0.3449933,-0.025124617,-0.7308722,7.3875003,-18.056252,-26.94375
1763129285919,-4.082155,4.6055856,7.003194,-0.51908237,-1.5146393,-0.40973756,0.33050233,-0.028386412,-0.7374368,7.3875003,-18.056252,-26.94375
1763129285920,-4.082155,4.6055856,7.003194,-0.51908237,-1.5146393,-0.40973756,0.33050233,-0.028386412,-0.7374368,7.33125,-19.050001,-28.66875
1763129285926,-4.082155,4.6055856,7.003194,-0.40989026,-1.9162828,-0.457385,0.33050233,-0.028386412,-0.7374368,7.33125,-19.050001,-28.66875
1763129285927,-3.9451663,4.01396,6.850053,-0.40989026,-1.9162828,-0.457385,0.33050233,-0.028386412,-0.7374368,7.33125,-19.050001,-28.66875
1763129285937,-3.9451663,4.01396,6.850053,-0.40989026,-1.9162828,-0.457385,0.3134475,-0.034880556,-0.7454864,7.33125,-19.050001,-28.66875
1763129285938,-3.9451663,4.01396,6.850053,-0.40989026,-1.9162828,-0.457385,0.3134475,-0.034880556,-0.7454864,6.9375005,-17.5125,-27.525002
1763129285948,-3.9451663,4.01396,6.850053,-0.3996583,-2.2317944,-0.36987862,0.3134475,-0.034880556,-0.7454864,6.9375005,-17.5125,-27.525002
1763129285949,-3.7663028,3.690929,7.2819576,-0.3996583,-2.2317944,-0.36987862,0.3134475,-0.034880556,-0.7454864,6.9375005,-17.5125,-27.525002
1763129285961,-3.7663028,3.690929,7.2819576,-0.3996583,-2.2317944,-0.36987862,0.2937849,-0.044078495,-0.75458324,6.9375005,-17.5125,-27.525002
1763129285962,-3.7663028,3.690929,7.2819576,-0.3996583,-2.2317944,-0.36987862,0.2937849,-0.044078495,-0.75458324,5.26875,-18.075,-29.23125
1763129285969,-3.7663028,3.690929,7.2819576,-0.5745183,-2.0405939,-0.28817546,0.2937849,-0.044078495,-0.75458324,5.26875,-18.075,-29.23125
1763129285970,-3.1154552,3.5048869,8.129615,-0.5745183,-2.0405939,-0.28817546,0.2937849,-0.044078495,-0.75458324,5.26875,-18.075,-29.23125
1763129285978,-3.1154552,3.5048869,8.129615,-0.5745183,-2.0405939,-0.28817546,0.27420068,-0.051655717,-0.76389164,5.26875,-18.075,-29.23125
1763129285979,-3.1154552,3.5048869,8.129615,-0.5745183,-2.0405939,-0.28817546,0.27420068,-0.051655717,-0.76389164,2.325,-17.306252,-28.931252
1763129285990,-3.1154552,3.5048869,8.129615,-0.7299834,-1.7363831,-0.23884813,0.27420068,-0.051655717,-0.76389164,2.325,-17.306252,-28.931252
1763129285991,-2.5058835,3.6023946,8.383254,-0.7299834,-1.7363831,-0.23884813,0.27420068,-0.051655717,-0.76389164,2.325,-17.306252,-28.931252
1763129285997,-2.5058835,3.6023946,8.383254,-0.7299834,-1.7363831,-0.23884813,0.255879,-0.055718347,-0.7706787,2.325,-17.306252,-28.931252
1763129285998,-2.5058835,3.6023946,8.383254,-0.7299834,-1.7363831,-0.23884813,0.255879,-0.055718347,-0.7706787,1.9125,-17.1,-29.118752
1763129286011,-2.5058835,3.6023946,8.383254,-0.72509646,-1.670257,-0.36102107,0.255879,-0.055718347,-0.7706787,1.9125,-17.1,-29.118752
1763129286012,-2.3575284,3.8697925,8.321041,-0.72509646,-1.670257,-0.36102107,0.255879,-0.055718347,-0.7706787,1.9125,-17.1,-29.118752
1763129286017,-2.3575284,3.8697925,8.321041,-0.72509646,-1.670257,-0.36102107,0.23805761,-0.05913616,-0.777632,1.9125,-17.1,-29.118752
1763129286018,-2.3575284,3.8697925,8.321041,-0.72509646,-1.670257,-0.36102107,0.23805761,-0.05913616,-0.777632,0.24375,-16.5,-27.337502
1763129286032,-2.3575284,3.8697925,8.321041,-0.70799226,-1.9028438,-0.46043932,0.23805761,-0.05913616,-0.777632,0.24375,-16.5,-27.337502
1763129286033,-2.7553353,3.3128629,7.773084,-0.70799226,-1.9028438,-0.46043932,0.23805761,-0.05913616,-0.777632,0.24375,-16.5,-27.337502
1763129286037,-2.7553353,3.3128629,7.773084,-0.70799226,-1.9028438,-0.46043932,0.21855214,-0.06374397,-0.78498936,0.24375,-16.5,-27.337502
1763129286039,-2.7553353,3.3128629,7.773084,-0.70799226,-1.9028438,-0.46043932,0.21855214,-0.06374397,-0.78498936,-1.8750001,-18.28125,-28.406252
1763129286053,-2.7553353,3.3128629,7.773084,-0.8016073,-2.1601706,-0.40011644,0.21855214,-0.06374397,-0.78498936,-1.8750001,-18.28125,-28.406252
1763129286055,-2.7469604,3.2350962,8.434102,-0.8016073,-2.1601706,-0.40011644,0.21855214,-0.06374397,-0.78498936,-1.8750001,-18.28125,-28.406252
1763129286059,-2.7469604,3.2350962,8.434102,-0.8016073,-2.1601706,-0.40011644,0.19638713,-0.069057934,-0.7921283,-1.8750001,-18.28125,-28.406252
1763129286060,-2.7469604,3.2350962,8.434102,-0.8016073,-2.1601706,-0.40011644,0.19638713,-0.069057934,-0.7921283,-2.0625,-17.19375,-27.69375
1763129286074,-2.2701905,3.062813,9.394221,-0.8016073,-2.1601706,-0.40011644,0.19638713,-0.069057934,-0.7921283,-2.0625,-17.19375,-27.69375
1763129286076,-2.2701905,3.062813,9.394221,-0.9109521,-2.1154246,-0.30527967,0.19638713,-0.069057934,-0.7921283,-2.0625,-17.19375,-27.69375
1763129286080,-2.2701905,3.062813,9.394221,-0.9109521,-2.1154246,-0.30527967,0.17379169,-0.073336855,-0.7982376,-2.0625,-17.19375,-27.69375
1763129286082,-2.2701905,3.062813,9.394221,-0.9109521,-2.1154246,-0.30527967,0.17379169,-0.073336855,-0.7982376,-5.0625,-19.03125,-28.556252
1763129286095,-2.2701905,3.062813,9.394221,-0.9952514,-1.621846,-0.14844014,0.17379169,-0.073336855,-0.7982376,-5.0625,-19.03125,-28.556252
1763129286096,-2.2360928,2.6781666,10.625329,-0.9952514,-1.621846,-0.14844014,0.17379169,-0.073336855,-0.7982376,-5.0625,-19.03125,-28.556252
1763129286099,-2.2360928,2.6781666,10.625329,-0.9952514,-1.621846,-0.14844014,0.15448762,-0.07430265,-0.802458,-5.0625,-19.03125,-28.556252
1763129286100,-2.2360928,2.6781666,10.625329,-0.9952514,-1.621846,-0.14844014,0.15448762,-0.07430265,-0.802458,-6.0375004,-17.94375,-26.7
1763129286116,-2.2360928,2.6781666,10.625329,-0.9911281,-0.9062179,0.1517999,0.15448762,-0.07430265,-0.802458,-6.0375004,-17.94375,-26.7
1763129286117,-2.2528424,2.423331,11.048261,-0.9911281,-0.9062179,0.1517999,0.15448762,-0.07430265,-0.802458,-6.0375004,-17.94375,-26.7
1763129286118,-2.2528424,2.423331,11.048261,-0.9911281,-0.9062179,0.1517999,0.15448762,-0.07430265,-0.802458,-5.5125003,-15.731251,-26.531252
1763129286119,-2.2528424,2.423331,11.048261,-0.9911281,-0.9062179,0.1517999,0.14082806,-0.0714764,-0.8038895,-5.5125003,-15.731251,-26.531252
1763129286139,-1.9698912,2.2384856,10.892129,-0.9911281,-0.9062179,0.1517999,0.14082806,-0.0714764,-0.8038895,-5.5125003,-15.731251,-26.531252
1763129286141,-1.9698912,2.2384856,10.892129,-0.92148954,-0.59391326,0.36361727,0.14082806,-0.0714764,-0.8038895,-5.5125003,-15.731251,-26.531252
1763129286142,-1.9698912,2.2384856,10.892129,-0.92148954,-0.59391326,0.36361727,0.14082806,-0.0714764,-0.8038895,-7.275,-14.38125,-26.19375
1763129286143,-1.9698912,2.2384856,10.892129,-0.92148954,-0.59391326,0.36361727,0.13003346,-0.06762576,-0.8034798,-7.275,-14.38125,-26.19375
1763129286158,-1.9698912,2.2384856,10.892129,-0.92148954,-0.59391326,0.36361727,0.12183795,-0.06341411,-0.8017617,-7.275,-14.38125,-26.19375
1763129286160,-1.9698912,2.2384856,10.892129,-0.92148954,-0.59391326,0.36361727,0.12183795,-0.06341411,-0.8017617,-6.3,-14.2875,-23.962502
1763129286161,-1.9698912,2.2384856,10.892129,-0.8118393,-0.3488038,0.4951059,0.12183795,-0.06341411,-0.8017617,-6.3,-14.2875,-23.962502
1763129286163,-1.7533408,1.881955,10.8969145,-0.8118393,-0.3488038,0.4951059,0.12183795,-0.06341411,-0.8017617,-6.3,-14.2875,-23.962502
1763129286178,-1.7533408,1.881955,10.8969145,-0.8118393,-0.3488038,0.4951059,0.12183795,-0.06341411,-0.8017617,-8.418751,-16.06875,-25.312502
1763129286179,-1.7533408,1.881955,10.8969145,-0.8118393,-0.3488038,0.4951059,0.11547834,-0.060495384,-0.7991588,-8.418751,-16.06875,-25.312502
1763129286181,-1.7533408,1.881955,10.8969145,-0.61040664,-0.25641048,0.6204859,0.11547834,-0.060495384,-0.7991588,-8.418751,-16.06875,-25.312502
1763129286182,-1.1102697,1.4901303,10.740185,-0.61040664,-0.25641048,0.6204859,0.11547834,-0.060495384,-0.7991588,-8.418751,-16.06875,-25.312502
1763129286197,-1.1102697,1.4901303,10.740185,-0.61040664,-0.25641048,0.6204859,0.11547834,-0.060495384,-0.7991588,-7.0875,-14.812501,-25.425001
1763129286201,-1.1102697,1.4901303,10.740185,-0.61040664,-0.25641048,0.6204859,0.10880117,-0.06263277,-0.79711586,-7.0875,-14.812501,-25.425001
1763129286202,-1.1102697,1.4901303,10.740185,-0.22999059,-0.5535962,0.59635675,0.10880117,-0.06263277,-0.79711586,-7.0875,-14.812501,-25.425001
1763129286203,-0.58983076,1.8125632,10.93161,-0.22999059,-0.5535962,0.59635675,0.10880117,-0.06263277,-0.79711586,-7.0875,-14.812501,-25.425001
1763129286219,-0.58983076,1.8125632,10.93161,-0.22999059,-0.5535962,0.59635675,0.10880117,-0.06263277,-0.79711586,-8.925,-15.243751,-25.5375
1763129286223,-0.58983076,1.8125632,10.93161,0.33215773,-0.6478221,0.43875363,0.10880117,-0.06263277,-0.79711586,-8.925,-15.243751,-25.5375
1763129286224,-0.44626144,2.3246272,11.286346,0.33215773,-0.6478221,0.43875363,0.10880117,-0.06263277,-0.79711586,-8.925,-15.243751,-25.5375
1763129286226,-0.44626144,2.3246272,11.286346,0.33215773,-0.6478221,0.43875363,0.104865536,-0.06994292,-0.7956527,-8.925,-15.243751,-25.5375
1763129286238,-0.44626144,2.3246272,11.286346,0.33215773,-0.6478221,0.43875363,0.104865536,-0.06994292,-0.7956527,-8.306251,-15.39375,-22.893751
1763129286243,-0.44626144,2.3246272,11.286346,0.8516982,-0.26374087,0.2441932,0.104865536,-0.06994292,-0.7956527,-8.306251,-15.39375,-22.893751
1763129286243,-0.6125626,2.3001008,10.815558,0.8516982,-0.26374087,0.2441932,0.104865536,-0.06994292,-0.7956527,-8.306251,-15.39375,-22.893751
1763129286245,-0.6125626,2.3001008,10.815558,0.8516982,-0.26374087,0.2441932,0.107510395,-0.07901076,-0.7943738,-8.306251,-15.39375,-22.893751
1763129286258,-0.6125626,2.3001008,10.815558,0.8516982,-0.26374087,0.2441932,0.107510395,-0.07901076,-0.7943738,-8.606251,-14.981251,-24.6
1763129286263,-0.6125626,2.3001008,10.815558,0.8516982,-0.26374087,0.2441932,0.114320844,-0.08732153,-0.79304755,-8.606251,-14.981251,-24.6
1763129286265,-0.8578269,1.975275,9.385847,0.8516982,-0.26374087,0.2441932,0.114320844,-0.08732153,-0.79304755,-8.606251,-14.981251,-24.6
1763129286266,-0.8578269,1.975275,9.385847,1.0407609,0.08949169,0.16187917,0.114320844,-0.08732153,-0.79304755,-8.606251,-14.981251,-24.6
1763129286278,-0.8578269,1.975275,9.385847,1.0407609,0.08949169,0.16187917,0.114320844,-0.08732153,-0.79304755,-7.2187505,-16.425001,-24.4125
1763129286284,-0.8578269,1.975275,9.385847,1.0407609,0.08949169,0.16187917,0.11945769,-0.09584696,-0.7914811,-7.2187505,-16.425001,-24.4125
1763129286285,-0.8578269,1.975275,9.385847,0.9625702,-0.049174614,0.22739442,0.11945769,-0.09584696,-0.7914811,-7.2187505,-16.425001,-24.4125
1763129286285,-1.1186446,2.295315,8.703893,0.9625702,-0.049174614,0.22739442,0.11945769,-0.09584696,-0.7914811,-7.2187505,-16.425001,-24.4125
1763129286298,-1.1186446,2.295315,8.703893,0.9625702,-0.049174614,0.22739442,0.11945769,-0.09584696,-0.7914811,-9.337501,-18.225,-25.48125
1763129286305,-1.1186446,2.295315,8.703893,0.9625702,-0.049174614,0.22739442,0.12070508,-0.104926996,-0.7891614,-9.337501,-18.225,-25.48125
1763129286307,-0.85483587,2.9826534,8.365308,0.9625702,-0.049174614,0.22739442,0.12070508,-0.104926996,-0.7891614,-9.337501,-18.225,-25.48125
1763129286308,-0.85483587,2.9826534,8.365308,0.7706059,-0.37690356,0.37171122,0.12070508,-0.104926996,-0.7891614,-9.337501,-18.225,-25.48125
1763129286318,-0.85483587,2.9826534,8.365308,0.7706059,-0.37690356,0.37171122,0.12070508,-0.104926996,-0.7891614,-6.4687505,-14.6625,-25.275002
1763129286326,-0.85483587,2.9826534,8.365308,0.5039635,-0.42974338,0.35506517,0.12070508,-0.104926996,-0.7891614,-6.4687505,-14.6625,-25.275002
1763129286327,-0.43429732,3.4187453,8.505886,0.5039635,-0.42974338,0.35506517,0.12070508,-0.104926996,-0.7891614,-6.4687505,-14.6625,-25.275002
1763129286338,-0.43429732,3.4187453,8.505886,0.5039635,-0.42974338,0.35506517,0.12002309,-0.11215637,-0.7867158,-6.4687505,-14.6625,-25.275002
1763129286339,-0.43429732,3.4187453,8.505886,0.5039635,-0.42974338,0.35506517,0.12002309,-0.11215637,-0.7867158,-8.08125,-16.48125,-26.175001
1763129286347,-0.43429732,3.4187453,8.505886,0.20540328,-0.43233955,0.2848157,0.12002309,-0.11215637,-0.7867158,-8.08125,-16.48125,-26.175001
1763129286349,-0.35593235,2.9383862,8.475378,0.20540328,-0.43233955,0.2848157,0.12002309,-0.11215637,-0.7867158,-8.08125,-16.48125,-26.175001
1763129286357,-0.35593235,2.9383862,8.475378,0.20540328,-0.43233955,0.2848157,0.11755508,-0.11692613,-0.78481615,-8.08125,-16.48125,-26.175001
1763129286358,-0.35593235,2.9383862,8.475378,0.20540328,-0.43233955,0.2848157,0.11755508,-0.11692613,-0.78481615,-8.2875,-17.5125,-26.268751
1763129286368,-0.35593235,2.9383862,8.475378,-0.03573559,-0.51053023,0.30772313,0.11755508,-0.11692613,-0.78481615,-8.2875,-17.5125,-26.268751
1763129286369,-0.61734825,2.7421749,8.738588,-0.03573559,-0.51053023,0.30772313,0.11755508,-0.11692613,-0.78481615,-8.2875,-17.5125,-26.268751
1763129286378,-0.61734825,2.7421749,8.738588,-0.03573559,-0.51053023,0.30772313,0.11277228,-0.12019893,-0.7835032,-8.2875,-17.5125,-26.268751
1763129286379,-0.61734825,2.7421749,8.738588,-0.03573559,-0.51053023,0.30772313,0.11277228,-0.12019893,-0.7835032,-8.0625,-16.5,-26.625002
1763129286389,-0.61734825,2.7421749,8.738588,-0.1508836,-0.5865829,0.34758207,0.11277228,-0.12019893,-0.7835032,-8.0625,-16.5,-26.625002
1763129286390,-0.22372891,3.0311081,8.85823,-0.1508836,-0.5865829,0.34758207,0.11277228,-0.12019893,-0.7835032,-8.0625,-16.5,-26.625002
1763129286398,-0.22372891,3.0311081,8.85823,-0.1508836,-0.5865829,0.34758207,0.106601804,-0.1229566,-0.7822723,-8.0625,-16.5,-26.625002
1763129286399,-0.22372891,3.0311081,8.85823,-0.1508836,-0.5865829,0.34758207,0.106601804,-0.1229566,-0.7822723,-9.525001,-16.987501,-26.325
1763129286410,-0.22372891,3.0311081,8.85823,-0.18723005,-0.62644184,0.31994042,0.106601804,-0.1229566,-0.7822723,-9.525001,-16.987501,-26.325
1763129286412,0.16151553,3.0400813,8.918648,-0.18723005,-0.62644184,0.31994042,0.106601804,-0.1229566,-0.7822723,-9.525001,-16.987501,-26.325
1763129286418,0.16151553,3.0400813,8.918648,-0.18723005,-0.62644184,0.31994042,0.09992889,-0.12569644,-0.7810802,-9.525001,-16.987501,-26.325
1763129286419,0.16151553,3.0400813,8.918648,-0.18723005,-0.62644184,0.31994042,0.09992889,-0.12569644,-0.7810802,-8.7375,-17.925001,-25.5375
1763129286431,0.16151553,3.0400813,8.918648,-0.12538,-0.7368556,0.27565274,0.09992889,-0.12569644,-0.7810802,-8.7375,-17.925001,-25.5375
1763129286432,0.19441684,2.973082,9.433703,-0.12538,-0.7368556,0.27565274,0.09992889,-0.12569644,-0.7810802,-8.7375,-17.925001,-25.5375
1763129286437,0.19441684,2.973082,9.433703,-0.12538,-0.7368556,0.27565274,0.0927427,-0.12963565,-0.7801836,-8.7375,-17.925001,-25.5375
1763129286438,0.19441684,2.973082,9.433703,-0.12538,-0.7368556,0.27565274,0.0927427,-0.12963565,-0.7801836,-11.26875,-18.0375,-26.400002
1763129286452,0.19441684,2.973082,9.433703,0.008704823,-0.6056724,0.22418737,0.0927427,-0.12963565,-0.7801836,-11.26875,-18.0375,-26.400002
1763129286454,0.36550367,2.961118,9.987641,0.008704823,-0.6056724,0.22418737,0.0927427,-0.12963565,-0.7801836,-11.26875,-18.0375,-26.400002
1763129286458,0.36550367,2.961118,9.987641,0.008704823,-0.6056724,0.22418737,0.08749722,-0.1337436,-0.7794341,-11.26875,-18.0375,-26.400002
1763129286459,0.36550367,2.961118,9.987641,0.008704823,-0.6056724,0.22418737,0.08749722,-0.1337436,-0.7794341,-9.20625,-15.13125,-24.750002
1763129286473,0.36550367,2.961118,9.987641,0.10399973,-0.21364996,0.12782346,0.08749722,-0.1337436,-0.7794341,-9.20625,-15.13125,-24.750002
1763129286474,0.6155536,2.8839495,9.912866,0.10399973,-0.21364996,0.12782346,0.08749722,-0.1337436,-0.7794341,-9.20625,-15.13125,-24.750002
1763129286478,0.6155536,2.8839495,9.912866,0.10399973,-0.21364996,0.12782346,0.08609804,-0.1360477,-0.7789795,-9.20625,-15.13125,-24.750002
1763129286480,0.6155536,2.8839495,9.912866,0.10399973,-0.21364996,0.12782346,0.08609804,-0.1360477,-0.7789795,-11.15625,-16.5375,-24.337502
1763129286494,0.6155536,2.8839495,9.912866,0.1782198,-0.06444623,0.07880156,0.08609804,-0.1360477,-0.7789795,-11.15625,-16.5375,-24.337502
1763129286496,0.61076796,3.01376,9.626924,0.1782198,-0.06444623,0.07880156,0.08609804,-0.1360477,-0.7789795,-11.15625,-16.5375,-24.337502
1763129286499,0.61076796,3.01376,9.626924,0.1782198,-0.06444623,0.07880156,0.08602966,-0.13821365,-0.78020537,-11.15625,-16.5375,-24.337502
1763129286500,0.61076796,3.01376,9.626924,0.1782198,-0.06444623,0.07880156,0.08602966,-0.13821365,-0.78020537,-11.38125,-16.612501,-26.212502
1763129286515,0.61076796,3.01376,9.626924,0.30436337,-0.12568542,0.053908817,0.08602966,-0.13821365,-0.78020537,-11.38125,-16.612501,-26.212502
1763129286516,0.5371887,3.2530425,9.702297,0.30436337,-0.12568542,0.053908817,0.08602966,-0.13821365,-0.78020537,-11.38125,-16.612501,-26.212502
1763129286518,0.5371887,3.2530425,9.702297,0.30436337,-0.12568542,0.053908817,0.08637221,-0.14176585,-0.7811645,-11.38125,-16.612501,-26.212502
1763129286520,0.5371887,3.2530425,9.702297,0.30436337,-0.12568542,0.053908817,0.08637221,-0.14176585,-0.7811645,-12.337501,-18.75,-23.8125
1763129286536,0.5371887,3.2530425,9.702297,0.42699447,-0.058795735,-0.004123337,0.08637221,-0.14176585,-0.7811645,-12.337501,-18.75,-23.8125
1763129286537,0.465404,3.1106694,9.4229355,0.42699447,-0.058795735,-0.004123337,0.08637221,-0.14176585,-0.7811645,-12.337501,-18.75,-23.8125
1763129286539,0.465404,3.1106694,9.4229355,0.42699447,-0.058795735,-0.004123337,0.08818449,-0.14583373,-0.78203946,-12.337501,-18.75,-23.8125
1763129286540,0.465404,3.1106694,9.4229355,0.42699447,-0.058795735,-0.004123337,0.08818449,-0.14583373,-0.78203946,-10.275001,-16.35,-25.95
1763129286558,0.465404,3.1106694,9.4229355,0.5393936,-0.06291907,-0.031459536,0.08818449,-0.14583373,-0.78203946,-10.275001,-16.35,-25.95
1763129286560,0.465404,3.1106694,9.4229355,0.5393936,-0.06291907,-0.031459536,0.09096953,-0.15061529,-0.78174675,-10.275001,-16.35,-25.95
1763129286562,0.465404,3.1106694,9.4229355,0.5393936,-0.06291907,-0.031459536,0.09096953,-0.15061529,-0.78174675,-8.34375,-14.793751,-27.000002
1763129286563,0.38644084,3.1250265,9.196216,0.5393936,-0.06291907,-0.031459536,0.09096953,-0.15061529,-0.78174675,-8.34375,-14.793751,-27.000002
1763129286579,0.38644084,3.1250265,9.196216,0.5393936,-0.06291907,-0.031459536,0.093736865,-0.15587708,-0.7825207,-8.34375,-14.793751,-27.000002
1763129286580,0.38644084,3.1250265,9.196216,0.5393936,-0.06291907,-0.031459536,0.093736865,-0.15587708,-0.7825207,-10.743751,-17.41875,-25.35
1763129286581,0.38644084,3.1250265,9.196216,0.57955796,-0.06750056,-0.05146536,0.093736865,-0.15587708,-0.7825207,-10.743751,-17.41875,-25.35
1763129286583,0.51086766,3.418147,9.028718,0.57955796,-0.06750056,-0.05146536,0.093736865,-0.15587708,-0.7825207,-10.743751,-17.41875,-25.35
1763129286597,0.51086766,3.418147,9.028718,0.57955796,-0.06750056,-0.05146536,0.093736865,-0.15587708,-0.7825207,-9.056251,-16.06875,-25.06875
1763129286598,0.51086766,3.418147,9.028718,0.57955796,-0.06750056,-0.05146536,0.0965998,-0.16005845,-0.78385323,-9.056251,-16.06875,-25.06875
1763129286600,0.51086766,3.418147,9.028718,0.4958695,0.0010690134,-0.11575887,0.0965998,-0.16005845,-0.78385323,-9.056251,-16.06875,-25.06875
1763129286601,0.40079778,3.5090744,9.010174,0.4958695,0.0010690134,-0.11575887,0.0965998,-0.16005845,-0.78385323,-9.056251,-16.06875,-25.06875
1763129286617,0.40079778,3.5090744,9.010174,0.4958695,0.0010690134,-0.11575887,0.0965998,-0.16005845,-0.78385323,-10.5,-18.825,-26.118752
1763129286620,0.40079778,3.5090744,9.010174,0.32681265,0.10155627,-0.11331542,0.0965998,-0.16005845,-0.78385323,-10.5,-18.825,-26.118752
1763129286621,0.40079778,3.5090744,9.010174,0.32681265,0.10155627,-0.11331542,0.09923294,-0.1622336,-0.7853446,-10.5,-18.825,-26.118752
1763129286622,0.07836494,3.3176486,8.732008,0.32681265,0.10155627,-0.11331542,0.09923294,-0.1622336,-0.7853446,-10.5,-18.825,-26.118752
1763129286638,0.07836494,3.3176486,8.732008,0.32681265,0.10155627,-0.11331542,0.09923294,-0.1622336,-0.7853446,-11.775001,-19.743752,-24.88125
1763129286641,0.07836494,3.3176486,8.732008,0.17883067,0.036346454,-0.022601997,0.09923294,-0.1622336,-0.7853446,-11.775001,-19.743752,-24.88125
1763129286642,0.02751746,3.3631122,8.52443,0.17883067,0.036346454,-0.022601997,0.09923294,-0.1622336,-0.7853446,-11.775001,-19.743752,-24.88125
1763129286643,0.02751746,3.3631122,8.52443,0.17883067,0.036346454,-0.022601997,0.100666694,-0.16339788,-0.7852571,-11.775001,-19.743752,-24.88125
1763129286659,0.02751746,3.3631122,8.52443,0.17883067,0.036346454,-0.022601997,0.100666694,-0.16339788,-0.7852571,-8.26875,-16.85625,-25.837502
1763129286662,0.02751746,3.3631122,8.52443,0.17883067,0.036346454,-0.022601997,0.10023073,-0.16493611,-0.786053,-8.26875,-16.85625,-25.837502
1763129286664,0.02751746,3.3631122,8.52443,0.09987639,-0.09682207,0.018173227,0.10023073,-0.16493611,-0.786053,-8.26875,-16.85625,-25.837502
1763129286665,0.16151553,3.5162528,8.719446,0.09987639,-0.09682207,0.018173227,0.10023073,-0.16493611,-0.786053,-8.26875,-16.85625,-25.837502
1763129286678,0.16151553,3.5162528,8.719446,0.09987639,-0.09682207,0.018173227,0.10023073,-0.16493611,-0.786053,-11.08125,-19.275002,-25.875002
1763129286683,0.16151553,3.5162528,8.719446,0.09987639,-0.09682207,0.018173227,0.10041634,-0.16613299,-0.7859258,-11.08125,-19.275002,-25.875002
1763129286683,0.16151553,3.5162528,8.719446,0.10522146,-0.059559315,0.0019853106,0.10041634,-0.16613299,-0.7859258,-11.08125,-19.275002,-25.875002
1763129286685,0.2739782,3.5635111,9.056235,0.10522146,-0.059559315,0.0019853106,0.10041634,-0.16613299,-0.7859258,-11.08125,-19.275002,-25.875002
1763129286698,0.2739782,3.5635111,9.056235,0.10522146,-0.059559315,0.0019853106,0.10041634,-0.16613299,-0.7859258,-9.918751,-18.675001,-24.618752
1763129286704,0.2739782,3.5635111,9.056235,0.09422589,0.076816246,-0.013133593,0.10041634,-0.16613299,-0.7859258,-9.918751,-18.675001,-24.618752
1763129286705,0.14536397,3.4085758,8.813364,0.09422589,0.076816246,-0.013133593,0.10041634,-0.16613299,-0.7859258,-9.918751,-18.675001,-24.618752
1763129286707,0.14536397,3.4085758,8.813364,0.09422589,0.076816246,-0.013133593,0.10161597,-0.16639738,-0.78587115,-9.918751,-18.675001,-24.618752
1763129286718,0.14536397,3.4085758,8.813364,0.09422589,0.076816246,-0.013133593,0.10161597,-0.16639738,-0.78587115,-10.293751,-19.25625,-26.85
1763129286724,0.14536397,3.4085758,8.813364,0.037568185,0.06444623,0.031306818,0.10161597,-0.16639738,-0.78587115,-10.293751,-19.25625,-26.85
1763129286725,0.14536397,3.4085758,8.813364,0.037568185,0.06444623,0.031306818,0.10229413,-0.16629376,-0.7856783,-10.293751,-19.25625,-26.85
1763129286727,0.16869399,3.528217,8.700303,0.037568185,0.06444623,0.031306818,0.10229413,-0.16629376,-0.7856783,-10.293751,-19.25625,-26.85
1763129286738,0.16869399,3.528217,8.700303,0.037568185,0.06444623,0.031306818,0.10229413,-0.16629376,-0.7856783,-11.56875,-19.3875,-25.237501
1763129286746,0.16869399,3.528217,8.700303,-0.019089524,0.031917684,0.053145237,0.10229413,-0.16629376,-0.7856783,-11.56875,-19.3875,-25.237501
1763129286747,0.26979074,3.6598222,8.889935,-0.019089524,0.031917684,0.053145237,0.10229413,-0.16629376,-0.7856783,-11.56875,-19.3875,-25.237501
1763129286761,0.26979074,3.6598222,8.889935,-0.019089524,0.031917684,0.053145237,0.102367684,-0.16596314,-0.785364,-11.56875,-19.3875,-25.237501
1763129286766,0.26979074,3.6598222,8.889935,-0.019089524,0.031917684,0.053145237,0.102367684,-0.16596314,-0.785364,-9.975,-18.206251,-25.06875
1763129286767,0.26979074,3.6598222,8.889935,-0.010079269,-0.010690134,0.053145237,0.102367684,-0.16596314,-0.785364,-9.975,-18.206251,-25.06875
1763129286768,0.3062813,3.6658044,9.0436735,-0.010079269,-0.010690134,0.053145237,0.102367684,-0.16596314,-0.785364,-9.975,-18.206251,-25.06875
1763129286778,0.3062813,3.6658044,9.0436735,-0.010079269,-0.010690134,0.053145237,0.10214186,-0.1659898,-0.7850549,-9.975,-18.206251,-25.06875
1763129286779,0.3062813,3.6658044,9.0436735,-0.010079269,-0.010690134,0.053145237,0.10214186,-0.1659898,-0.7850549,-10.44375,-19.125,-27.075
1763129286788,0.3062813,3.6658044,9.0436735,0.016493348,0.013591741,0.027488915,0.10214186,-0.1659898,-0.7850549,-10.44375,-19.125,-27.075
1763129286789,0.3505485,3.702893,8.986245,0.016493348,0.013591741,0.027488915,0.10214186,-0.1659898,-0.7850549,-10.44375,-19.125,-27.075
1763129286797,0.3505485,3.702893,8.986245,0.016493348,0.013591741,0.027488915,0.10229505,-0.16606107,-0.784883,-10.44375,-19.125,-27.075
1763129286798,0.3505485,3.702893,8.986245,0.016493348,0.013591741,0.027488915,0.10229505,-0.16606107,-0.784883,-10.575001,-20.1,-24.88125
1763129286810,0.3505485,3.702893,8.986245,-0.012370012,0.026572619,0.004734202,0.10229505,-0.16606107,-0.784883,-10.575001,-20.1,-24.88125
1763129286811,0.37328035,3.6927235,8.885747,-0.012370012,0.026572619,0.004734202,0.10229505,-0.16606107,-0.784883,-10.575001,-20.1,-24.88125
1763129286819,0.37328035,3.6927235,8.885747,-0.012370012,0.026572619,0.004734202,0.10242479,-0.16580439,-0.7848499,-10.575001,-20.1,-24.88125
1763129286820,0.37328035,3.6927235,8.885747,-0.012370012,0.026572619,0.004734202,0.10242479,-0.16580439,-0.7848499,-9.88125,-18.825,-25.48125
1763129286830,0.37328035,3.6927235,8.885747,-0.064140804,-1.527162E-4,0.022754714,0.10242479,-0.16580439,-0.7848499,-9.88125,-18.825,-25.48125
1763129286831,0.29312077,3.6436708,8.992228,-0.064140804,-1.527162E-4,0.022754714,0.10242479,-0.16580439,-0.7848499,-9.88125,-18.825,-25.48125
1763129286838,0.29312077,3.6436708,8.992228,-0.064140804,-1.527162E-4,0.022754714,0.10199243,-0.16531248,-0.7847953,-9.88125,-18.825,-25.48125
1763129286839,0.29312077,3.6436708,8.992228,-0.064140804,-1.527162E-4,0.022754714,0.10199243,-0.16531248,-0.7847953,-11.306251,-19.331251,-26.23125
1763129286852,0.29312077,3.6436708,8.992228,-0.0707076,-0.011911863,0.042302385,0.10199243,-0.16531248,-0.7847953,-11.306251,-19.331251,-26.23125
1763129286853,0.38165522,3.6885362,9.195019,-0.0707076,-0.011911863,0.042302385,0.10199243,-0.16531248,-0.7847953,-11.306251,-19.331251,-26.23125
1763129286859,0.38165522,3.6885362,9.195019,-0.0707076,-0.011911863,0.042302385,0.10113581,-0.1649914,-0.7855778,-11.306251,-19.331251,-26.23125
1763129286860,0.38165522,3.6885362,9.195019,-0.0707076,-0.011911863,0.042302385,0.10113581,-0.1649914,-0.7855778,-9.8625,-18.825,-26.831251
1763129286872,0.38165522,3.6885362,9.195019,-0.028252495,0.03405571,0.015424335,0.10113581,-0.1649914,-0.7855778,-9.8625,-18.825,-26.831251
1763129286873,0.4671986,3.757928,9.1465645,-0.028252495,0.03405571,0.015424335,0.10113581,-0.1649914,-0.7855778,-9.8625,-18.825,-26.831251
1763129286877,0.4671986,3.757928,9.1465645,-0.028252495,0.03405571,0.015424335,0.1010351,-0.16466008,-0.78608155,-9.8625,-18.825,-26.831251
1763129286878,0.4671986,3.757928,9.1465645,-0.028252495,0.03405571,0.015424335,0.1010351,-0.16466008,-0.78608155,-10.668751,-19.35,-26.94375
1763129286894,0.4671986,3.757928,9.1465645,-0.031154104,0.083993904,-0.013591741,0.1010351,-0.16466008,-0.78608155,-10.668751,-19.35,-26.94375
1763129286895,0.3062813,3.6083765,8.868998,-0.031154104,0.083993904,-0.013591741,0.1010351,-0.16466008,-0.78608155,-10.668751,-19.35,-26.94375
1763129286899,0.3062813,3.6083765,8.868998,-0.031154104,0.083993904,-0.013591741,0.1010351,-0.16466008,-0.78608155,-9.76875,-17.85,-26.156252
1763129286914,0.3062813,3.6083765,8.868998,-0.07803798,0.03649917,0.008093959,0.1010351,-0.16466008,-0.78608155,-9.76875,-17.85,-26.156252
1763129286915,0.16570297,3.5030923,8.847462,-0.07803798,0.03649917,0.008093959,0.1010351,-0.16466008,-0.78608155,-9.76875,-17.85,-26.156252
1763129286918,0.16570297,3.5030923,8.847462,-0.07803798,0.03649917,0.008093959,0.101114035,-0.16423097,-0.78709704,-9.76875,-17.85,-26.156252
1763129286920,0.16570297,3.5030923,8.847462,-0.07803798,0.03649917,0.008093959,0.10076248,-0.16349167,-0.7877862,-9.76875,-17.85,-26.156252
1763129286921,0.16570297,3.5030923,8.847462,-0.07803798,0.03649917,0.008093959,0.10076248,-0.16349167,-0.7877862,-9.6,-18.28125,-24.7875
1763129286935,0.16570297,3.5030923,8.847462,-0.10613775,-0.005497783,0.047189303,0.10076248,-0.16349167,-0.7877862,-9.6,-18.28125,-24.7875
1763129286936,0.15972091,3.473182,8.946166,-0.10613775,-0.005497783,0.047189303,0.10076248,-0.16349167,-0.7877862,-9.6,-18.28125,-24.7875
1763129286938,0.15972091,3.473182,8.946166,-0.10613775,-0.005497783,0.047189303,0.10076248,-0.16349167,-0.7877862,-10.81875,-18.5625,-24.618752
1763129286939,0.15972091,3.473182,8.946166,-0.10613775,-0.005497783,0.047189303,0.09983469,-0.16265315,-0.7887984,-10.81875,-18.5625,-24.618752
1763129286956,0.15972091,3.473182,8.946166,-0.083688475,-0.008399391,0.053603385,0.09983469,-0.16265315,-0.7887984,-10.81875,-18.5625,-24.618752
1763129286957,0.22313072,3.5330026,9.050852,-0.083688475,-0.008399391,0.053603385,0.09983469,-0.16265315,-0.7887984,-10.81875,-18.5625,-24.618752
1763129286959,0.22313072,3.5330026,9.050852,-0.083688475,-0.008399391,0.053603385,0.098883785,-0.16200972,-0.7900924,-10.81875,-18.5625,-24.618752
1763129286960,0.22313072,3.5330026,9.050852,-0.083688475,-0.008399391,0.053603385,0.098883785,-0.16200972,-0.7900924,-11.15625,-20.25,-26.081251
1763129286978,0.22313072,3.5330026,9.050852,-0.083688475,-0.008399391,0.053603385,0.09839966,-0.16164722,-0.79088444,-11.15625,-20.25,-26.081251
1763129286979,0.22313072,3.5330026,9.050852,-0.04092794,0.004581486,0.04092794,0.09839966,-0.16164722,-0.79088444,-11.15625,-20.25,-26.081251
1763129286981,0.22313072,3.5330026,9.050852,-0.04092794,0.004581486,0.04092794,0.09839966,-0.16164722,-0.79088444,-9.375,-17.775002,-27.581251
1763129286982,0.29850462,3.5587256,9.170493,-0.04092794,0.004581486,0.04092794,0.09839966,-0.16164722,-0.79088444,-9.375,-17.775002,-27.581251
1763129286998,0.29850462,3.5587256,9.170493,-0.0013744457,0.054672398,0.024281874,0.09839966,-0.16164722,-0.79088444,-9.375,-17.775002,-27.581251
1763129286999,0.35413775,3.6113675,9.159725,-0.0013744457,0.054672398,0.024281874,0.09839966,-0.16164722,-0.79088444,-9.375,-17.775002,-27.581251
1763129287000,0.35413775,3.6113675,9.159725,-0.0013744457,0.054672398,0.024281874,0.09839966,-0.16164722,-0.79088444,-8.25,-17.00625,-25.63125
1763129287001,0.35413775,3.6113675,9.159725,-0.0013744457,0.054672398,0.024281874,0.09834555,-0.16142586,-0.7920945,-8.25,-17.00625,-25.63125
1763129287018,0.35413775,3.6113675,9.159725,-0.0013744457,0.054672398,0.024281874,0.09834555,-0.16142586,-0.7920945,-10.6125,-18.206251,-26.156252
1763129287019,0.35413775,3.6113675,9.159725,0.0029016077,0.07055488,0.009926553,0.09834555,-0.16142586,-0.7920945,-10.6125,-18.206251,-26.156252
1763129287019,0.35413775,3.6113675,9.159725,0.0029016077,0.07055488,0.009926553,0.0984738,-0.16124956,-0.7932012,-10.6125,-18.206251,-26.156252
1763129287021,0.17706887,3.5330026,8.872586,0.0029016077,0.07055488,0.009926553,0.0984738,-0.16124956,-0.7932012,-10.6125,-18.206251,-26.156252
1763129287038,0.17706887,3.5330026,8.872586,0.0029016077,0.07055488,0.009926553,0.0984738,-0.16124956,-0.7932012,-10.125,-17.2875,-25.518751
1763129287039,0.17706887,3.5330026,8.872586,-0.011300999,0.01970039,0.025809037,0.0984738,-0.16124956,-0.7932012,-10.125,-17.2875,-25.518751
1763129287040,0.17706887,3.5330026,8.872586,-0.011300999,0.01970039,0.025809037,0.09848447,-0.16107386,-0.7937746,-10.125,-17.2875,-25.518751
1763129287041,0.2440679,3.5234313,9.0131645,-0.011300999,0.01970039,0.025809037,0.09848447,-0.16107386,-0.7937746,-10.125,-17.2875,-25.518751
1763129287058,0.2440679,3.5234313,9.0131645,-0.011300999,0.01970039,0.025809037,0.09848447,-0.16107386,-0.7937746,-12.4125,-20.38125,-26.268751
1763129287062,0.2440679,3.5234313,9.0131645,-0.011300999,0.01970039,0.025809037,0.09841156,-0.16041732,-0.794853,-12.4125,-20.38125,-26.268751
1763129287063,0.2440679,3.5234313,9.0131645,-0.04459313,0.06291907,0.009926553,0.09841156,-0.16041732,-0.794853,-12.4125,-20.38125,-26.268751
1763129287064,0.2955136,3.5491543,9.01137,-0.04459313,0.06291907,0.009926553,0.09841156,-0.16041732,-0.794853,-12.4125,-20.38125,-26.268751
1763129287078,0.2955136,3.5491543,9.01137,-0.04459313,0.06291907,0.009926553,0.09841156,-0.16041732,-0.794853,-8.400001,-18.337502,-27.45
1763129287081,0.2955136,3.5491543,9.01137,-0.06704241,0.033902995,0.021380268,0.09841156,-0.16041732,-0.794853,-8.400001,-18.337502,-27.45
1763129287082,0.2955136,3.5491543,9.01137,-0.06704241,0.033902995,0.021380268,0.09796071,-0.15983793,-0.7957008,-8.400001,-18.337502,-27.45
1763129287085,0.20578274,3.5413775,8.955139,-0.06704241,0.033902995,0.021380268,0.09796071,-0.15983793,-0.7957008,-8.400001,-18.337502,-27.45
1763129287099,0.20578274,3.5413775,8.955139,-0.06704241,0.033902995,0.021380268,0.09796071,-0.15983793,-0.7957008,-10.106251,-19.03125,-25.181252
1763129287104,0.20578274,3.5413775,8.955139,-0.06704241,0.033902995,0.021380268,0.09740758,-0.15920718,-0.79638714,-10.106251,-19.03125,-25.181252
1763129287105,0.20578274,3.5413775,8.955139,-0.082924895,0.002290743,0.010079269,0.09740758,-0.15920718,-0.79638714,-10.106251,-19.03125,-25.181252
1763129287106,0.22492532,3.5383866,8.991031,-0.082924895,0.002290743,0.010079269,0.09740758,-0.15920718,-0.79638714,-10.106251,-19.03125,-25.181252
1763129287118,0.22492532,3.5383866,8.991031,-0.082924895,0.002290743,0.010079269,0.09740758,-0.15920718,-0.79638714,-9.28125,-18.525002,-26.2875
1763129287123,0.22492532,3.5383866,8.991031,-0.08781181,-0.021380268,0.01847866,0.09740758,-0.15920718,-0.79638714,-9.28125,-18.525002,-26.2875
1763129287124,0.22492532,3.5383866,8.991031,-0.08781181,-0.021380268,0.01847866,0.09650589,-0.1587562,-0.79737234,-9.28125,-18.525002,-26.2875
1763129287126,0.18484555,3.418147,9.12802,-0.08781181,-0.021380268,0.01847866,0.09650589,-0.1587562,-0.79737234,-9.28125,-18.525002,-26.2875
1763129287137,0.18484555,3.418147,9.12802,-0.08781181,-0.021380268,0.01847866,0.09650589,-0.1587562,-0.79737234,-8.493751,-17.0625,-26.437502
1763129287145,0.18484555,3.418147,9.12802,-0.058795735,0.00763581,0.025503604,0.09650589,-0.1587562,-0.79737234,-8.493751,-17.0625,-26.437502
1763129287146,0.25543383,3.4360933,9.37149,-0.058795735,0.00763581,0.025503604,0.09650589,-0.1587562,-0.79737234,-8.493751,-17.0625,-26.437502
1763129287147,0.25543383,3.4360933,9.37149,-0.058795735,0.00763581,0.025503604,0.095814504,-0.15819445,-0.79866827,-8.493751,-17.0625,-26.437502
1763129287161,0.25543383,3.4360933,9.37149,-0.058795735,0.00763581,0.025503604,0.095814504,-0.15819445,-0.79866827,-9.637501,-17.962502,-25.181252
1763129287169,0.25543383,3.4360933,9.37149,-0.052381653,0.14446951,0.0051923506,0.095814504,-0.15819445,-0.79866827,-9.637501,-17.962502,-25.181252
1763129287170,0.29312077,3.4600215,9.19143,-0.052381653,0.14446951,0.0051923506,0.095814504,-0.15819445,-0.79866827,-9.637501,-17.962502,-25.181252
1763129287178,0.29312077,3.4600215,9.19143,-0.052381653,0.14446951,0.0051923506,0.0958605,-0.15704323,-0.8010183,-9.637501,-17.962502,-25.181252
1763129287179,0.29312077,3.4600215,9.19143,-0.052381653,0.14446951,0.0051923506,0.0958605,-0.15704323,-0.8010183,-8.94375,-16.6875,-25.312502
1763129287187,0.29312077,3.4600215,9.19143,-0.12034036,0.11209369,0.0018325944,0.0958605,-0.15704323,-0.8010183,-8.94375,-16.6875,-25.312502
1763129287188,0.1692922,3.4779677,8.856435,-0.12034036,0.11209369,0.0018325944,0.0958605,-0.15704323,-0.8010183,-8.94375,-16.6875,-25.312502
1763129287197,0.1692922,3.4779677,8.856435,-0.12034036,0.11209369,0.0018325944,0.095605016,-0.15553403,-0.80226916,-8.94375,-16.6875,-25.312502
1763129287198,0.1692922,3.4779677,8.856435,-0.12034036,0.11209369,0.0018325944,0.095605016,-0.15553403,-0.80226916,-9.4125,-16.143751,-25.44375
1763129287207,0.1692922,3.4779677,8.856435,-0.15531237,-0.04459313,0.021532983,0.095605016,-0.15553403,-0.80226916,-9.4125,-16.143751,-25.44375
1763129287208,0.2548356,3.5539398,9.162716,-0.15531237,-0.04459313,0.021532983,0.095605016,-0.15553403,-0.80226916,-9.4125,-16.143751,-25.44375
1763129287219,0.2548356,3.5539398,9.162716,-0.15531237,-0.04459313,0.021532983,0.094440706,-0.15460852,-0.8024864,-9.4125,-16.143751,-25.44375
1763129287220,0.2548356,3.5539398,9.162716,-0.15531237,-0.04459313,0.021532983,0.094440706,-0.15460852,-0.8024864,-9.46875,-17.2875,-26.212502
1763129287229,0.2548356,3.5539398,9.162716,-0.083383046,-0.027947064,0.010079269,0.094440706,-0.15460852,-0.8024864,-9.46875,-17.2875,-26.212502
1763129287229,0.2835495,3.4283166,9.5665045,-0.083383046,-0.027947064,0.010079269,0.094440706,-0.15460852,-0.8024864,-9.46875,-17.2875,-26.212502
1763129287238,0.2835495,3.4283166,9.5665045,-0.083383046,-0.027947064,0.010079269,0.09362953,-0.15428038,-0.8030284,-9.46875,-17.2875,-26.212502
1763129287239,0.2835495,3.4283166,9.5665045,-0.083383046,-0.027947064,0.010079269,0.09362953,-0.15428038,-0.8030284,-9.39375,-17.75625,-27.13125
1763129287252,0.2835495,3.4283166,9.5665045,0.014813471,0.07192933,0.0013744457,0.09362953,-0.15428038,-0.8030284,-9.39375,-17.75625,-27.13125
1763129287254,0.20219351,3.377469,9.298509,0.014813471,0.07192933,0.0013744457,0.09362953,-0.15428038,-0.8030284,-9.39375,-17.75625,-27.13125
1763129287261,0.20219351,3.377469,9.298509,0.014813471,0.07192933,0.0013744457,0.09362876,-0.1540386,-0.80462354,-9.39375,-17.75625,-27.13125
1763129287261,0.20219351,3.377469,9.298509,0.014813471,0.07192933,0.0013744457,0.09362876,-0.1540386,-0.80462354,-9.50625,-17.1375,-25.368752
1763129287271,0.20219351,3.377469,9.298509,0.046883874,0.05650499,-0.0010690134,0.09362876,-0.1540386,-0.80462354,-9.50625,-17.1375,-25.368752
1763129287272,0.22612174,3.4995031,8.973084,0.046883874,0.05650499,-0.0010690134,0.09362876,-0.1540386,-0.80462354,-9.50625,-17.1375,-25.368752
1763129287277,0.22612174,3.4995031,8.973084,0.046883874,0.05650499,-0.0010690134,0.093866065,-0.15413244,-0.8060488,-9.50625,-17.1375,-25.368752
1763129287278,0.22612174,3.4995031,8.973084,0.046883874,0.05650499,-0.0010690134,0.093866065,-0.15413244,-0.8060488,-9.525001,-17.1375,-24.31875
1763129287292,0.21655045,3.4169507,8.904889,0.046883874,0.05650499,-0.0010690134,0.093866065,-0.15413244,-0.8060488,-9.525001,-17.1375,-24.31875
1763129287292,0.21655045,3.4169507,8.904889,-0.0030543238,0.044134982,-0.021380268,0.093866065,-0.15413244,-0.8060488,-9.525001,-17.1375,-24.31875
1763129287298,0.21655045,3.4169507,8.904889,-0.0030543238,0.044134982,-0.021380268,0.094269305,-0.15400267,-0.80628926,-9.525001,-17.1375,-24.31875
1763129287299,0.21655045,3.4169507,8.904889,-0.0030543238,0.044134982,-0.021380268,0.094269305,-0.15400267,-0.80628926,-9.543751,-16.987501,-25.25625
1763129287313,0.21655045,3.4169507,8.904889,-0.08093958,0.026572619,-0.016798781,0.094269305,-0.15400267,-0.80628926,-9.543751,-16.987501,-25.25625
1763129287314,0.13280165,3.3816566,9.008379,-0.08093958,0.026572619,-0.016798781,0.094269305,-0.15400267,-0.80628926,-9.543751,-16.987501,-25.25625
1763129287318,0.13280165,3.3816566,9.008379,-0.08093958,0.026572619,-0.016798781,0.09395684,-0.15330356,-0.80688787,-9.543751,-16.987501,-25.25625
1763129287319,0.13280165,3.3816566,9.008379,-0.08093958,0.026572619,-0.016798781,0.09395684,-0.15330356,-0.80688787,-10.743751,-19.03125,-25.218752
1763129287335,0.13280165,3.3816566,9.008379,-0.102014415,-0.0059559317,0.008704823,0.09395684,-0.15330356,-0.80688787,-10.743751,-19.03125,-25.218752
1763129287337,0.086141616,3.3517463,9.196216,-0.102014415,-0.0059559317,0.008704823,0.09395684,-0.15330356,-0.80688787,-10.743751,-19.03125,-25.218752
1763129287339,0.086141616,3.3517463,9.196216,-0.102014415,-0.0059559317,0.008704823,0.09325782,-0.15250024,-0.8075044,-10.743751,-19.03125,-25.218752
1763129287340,0.086141616,3.3517463,9.196216,-0.102014415,-0.0059559317,0.008704823,0.09325782,-0.15250024,-0.8075044,-9.731251,-17.34375,-25.218752
1763129287354,0.086141616,3.3517463,9.196216,-0.058490302,0.003817905,0.016187917,0.09325782,-0.15250024,-0.8075044,-9.731251,-17.34375,-25.218752
1763129287356,0.06699903,3.269792,9.391231,-0.058490302,0.003817905,0.016187917,0.09325782,-0.15250024,-0.8075044,-9.731251,-17.34375,-25.218752
1763129287357,0.06699903,3.269792,9.391231,-0.058490302,0.003817905,0.016187917,0.092825264,-0.15188523,-0.80821353,-9.731251,-17.34375,-25.218752
1763129287358,0.06699903,3.269792,9.391231,-0.058490302,0.003817905,0.016187917,0.092825264,-0.15188523,-0.80821353,-9.168751,-17.550001,-26.6625
1763129287380,0.06699903,3.269792,9.391231,0.18371758,0.35033095,-0.010231985,0.092825264,-0.15188523,-0.80821353,-9.168751,-17.550001,-26.6625
1763129287381,0.14057833,3.251248,9.802198,0.18371758,0.35033095,-0.010231985,0.092825264,-0.15188523,-0.80821353,-9.168751,-17.550001,-26.6625
1763129287382,0.14057833,3.251248,9.802198,0.18371758,0.35033095,-0.010231985,0.09625472,-0.15125035,-0.80950075,-9.168751,-17.550001,-26.6625
1763129287382,0.14057833,3.251248,9.802198,0.18371758,0.35033095,-0.010231985,0.09625472,-0.15125035,-0.80950075,-10.875,-18.900002,-25.9125
1763129287398,0.14057833,3.251248,9.802198,0.5870411,0.4318814,-0.11575887,0.09625472,-0.15125035,-0.80950075,-10.875,-18.900002,-25.9125
1763129287399,0.14057833,3.251248,9.802198,0.5870411,0.4318814,-0.11575887,0.10205291,-0.15349127,-0.8119667,-10.875,-18.900002,-25.9125
1763129287400,0.14057833,3.251248,9.802198,0.5870411,0.4318814,-0.11575887,0.10205291,-0.15349127,-0.8119667,-9.975,-18.206251,-25.368752
1763129287401,-0.05742774,3.3613176,9.38824,0.5870411,0.4318814,-0.11575887,0.10205291,-0.15349127,-0.8119667,-9.975,-18.206251,-25.368752
1763129287419,-0.05742774,3.3613176,9.38824,0.619875,0.2403753,-0.076358095,0.10205291,-0.15349127,-0.8119667,-9.975,-18.206251,-25.368752
1763129287420,-0.05742774,3.3613176,9.38824,0.619875,0.2403753,-0.076358095,0.10685469,-0.15714242,-0.81356573,-9.975,-18.206251,-25.368752
1763129287420,-0.05742774,3.3613176,9.38824,0.619875,0.2403753,-0.076358095,0.10685469,-0.15714242,-0.81356573,-8.38125,-17.98125,-23.4375
1763129287421,-0.3044867,3.5784662,8.483154,0.619875,0.2403753,-0.076358095,0.10685469,-0.15714242,-0.81356573,-8.38125,-17.98125,-23.4375
1763129287437,-0.3044867,3.5784662,8.483154,0.619875,0.2403753,-0.076358095,0.10685469,-0.15714242,-0.81356573,-9.450001,-18.91875,-28.050001
1763129287439,-0.3044867,3.5784662,8.483154,0.19394957,-0.038179047,-0.00962112,0.10685469,-0.15714242,-0.81356573,-9.450001,-18.91875,-28.050001
1763129287440,-0.3044867,3.5784662,8.483154,0.19394957,-0.038179047,-0.00962112,0.10827004,-0.15883555,-0.8130964,-9.450001,-18.91875,-28.050001
1763129287441,-0.44027936,3.6167514,7.859824,0.19394957,-0.038179047,-0.00962112,0.10827004,-0.15883555,-0.8130964,-9.450001,-18.91875,-28.050001
1763129287459,-0.44027936,3.6167514,7.859824,0.19394957,-0.038179047,-0.00962112,0.10827004,-0.15883555,-0.8130964,-8.925,-16.6875,-26.831251
1763129287460,-0.44027936,3.6167514,7.859824,-0.4392118,-0.32559094,0.12843432,0.10827004,-0.15883555,-0.8130964,-8.925,-16.6875,-26.831251
1763129287461,-0.44027936,3.6167514,7.859824,-0.4392118,-0.32559094,0.12843432,0.10447933,-0.15689027,-0.81127155,-8.925,-16.6875,-26.831251
1763129287463,-0.18843478,3.3230324,8.170293,-0.4392118,-0.32559094,0.12843432,0.10447933,-0.15689027,-0.81127155,-8.925,-16.6875,-26.831251
1763129287490,-0.18843478,3.3230324,8.170293,-0.4392118,-0.32559094,0.12843432,0.10447933,-0.15689027,-0.81127155,-10.06875,-19.050001,-26.7
1763129287491,-0.18843478,3.3230324,8.170293,-0.80405074,-0.20876303,0.22632541,0.10447933,-0.15689027,-0.81127155,-10.06875,-19.050001,-26.7
1763129287492,-0.18843478,3.3230324,8.170293,-0.80405074,-0.20876303,0.22632541,0.09842184,-0.15141523,-0.8108244,-10.06875,-19.050001,-26.7
1763129287492,0.20219351,3.3278182,9.122637,-0.80405074,-0.20876303,0.22632541,0.09842184,-0.15141523,-0.8108244,-10.06875,-19.050001,-26.7
