timestamp,accX,accY,accZ,gyroX,gyroY,gyroZ,rotX,rotY,rotZ,magX,magY,magZ
1763129320577,7.153343,5.0189457,3.9577286,-0.216857,0.31062475,-0.013591741,-0.27494,-0.45736384,-0.7640583,-32.568752,-27.4125,-1.4250001
1763129320585,7.153343,5.0189457,3.9577286,-0.16233732,0.88315773,0.042302385,-0.27494,-0.45736384,-0.7640583,-32.568752,-27.4125,-1.4250001
1763129320585,7.153343,5.0189457,3.9577286,-0.16233732,0.88315773,0.042302385,-0.2687367,-0.45260733,-0.76721627,-32.568752,-27.4125,-1.4250001
1763129320585,6.9535427,5.2103715,4.095316,-0.16233732,0.88315773,0.042302385,-0.2687367,-0.45260733,-0.76721627,-32.568752,-27.4125,-1.4250001
1763129320599,6.9535427,5.2103715,4.095316,-0.16233732,0.88315773,0.042302385,-0.2687367,-0.45260733,-0.76721627,-38.49375,-31.968752,0.75
1763129320605,6.9535427,5.2103715,4.095316,-0.12522727,1.129489,0.0772744,-0.2687367,-0.45260733,-0.76721627,-38.49375,-31.968752,0.75
1763129320606,6.7968125,5.0889354,4.298706,-0.12522727,1.129489,0.0772744,-0.2687367,-0.45260733,-0.76721627,-38.49375,-31.968752,0.75
1763129320618,6.7968125,5.0889354,4.298706,-0.12522727,1.129489,0.0772744,-0.26040193,-0.4471486,-0.77059525,-38.49375,-31.968752,0.75
1763129320619,6.7968125,5.0889354,4.298706,-0.12522727,1.129489,0.0772744,-0.26040193,-0.4471486,-0.77059525,-30.206251,-25.931252,-5.3625
1763129320626,6.7968125,5.0889354,4.298706,-0.09315688,1.1328487,0.11255184,-0.26040193,-0.4471486,-0.77059525,-30.206251,-25.931252,-5.3625
1763129320627,6.5868425,4.918447,4.519444,-0.09315688,1.1328487,0.11255184,-0.26040193,-0.4471486,-0.77059525,-30.206251,-25.931252,-5.3625
1763129320637,6.5868425,4.918447,4.519444,-0.09315688,1.1328487,0.11255184,-0.25194317,-0.44181263,-0.7735053,-30.206251,-25.931252,-5.3625
1763129320638,6.5868425,4.918447,4.519444,-0.09315688,1.1328487,0.11255184,-0.25194317,-0.44181263,-0.7735053,-32.925003,-26.550001,-4.8
1763129320647,6.5868425,4.918447,4.519444,-0.07116575,0.98868465,0.15821397,-0.25194317,-0.44181263,-0.7735053,-32.925003,-26.550001,-4.8
1763129320648,6.5276203,4.861019,4.6498528,-0.07116575,0.98868465,0.15821397,-0.25194317,-0.44181263,-0.7735053,-32.925003,-26.550001,-4.8
1763129320657,6.5276203,4.861019,4.6498528,-0.07116575,0.98868465,0.15821397,-0.24475314,-0.43700513,-0.7756744,-32.925003,-26.550001,-4.8
1763129320658,6.5276203,4.861019,4.6498528,-0.07116575,0.98868465,0.15821397,-0.24475314,-0.43700513,-0.7756744,-34.256252,-29.1375,-7.0687504
1763129320669,6.5276203,4.861019,4.6498528,-0.07589995,0.8159626,0.23838998,-0.24475314,-0.43700513,-0.7756744,-34.256252,-29.1375,-7.0687504
1763129320670,6.5850477,4.8652067,4.8305106,-0.07589995,0.8159626,0.23838998,-0.24475314,-0.43700513,-0.7756744,-34.256252,-29.1375,-7.0687504
1763129320678,6.5850477,4.8652067,4.8305106,-0.07589995,0.8159626,0.23838998,-0.23942846,-0.43255064,-0.7771043,-34.256252,-29.1375,-7.0687504
1763129320679,6.5850477,4.8652067,4.8305106,-0.07589995,0.8159626,0.23838998,-0.23942846,-0.43255064,-0.7771043,-30.50625,-26.19375,-8.418751
1763129320689,6.5850477,4.8652067,4.8305106,-0.075289086,0.66248286,0.2689332,-0.23942846,-0.43255064,-0.7771043,-30.50625,-26.19375,-8.418751
1763129320690,6.835098,4.7198424,5.0422754,-0.075289086,0.66248286,0.2689332,-0.23942846,-0.43255064,-0.7771043,-30.50625,-26.19375,-8.418751
1763129320698,6.835098,4.7198424,5.0422754,-0.075289086,0.66248286,0.2689332,-0.2355012,-0.4286032,-0.7779899,-30.50625,-26.19375,-8.418751
1763129320702,6.835098,4.7198424,5.0422754,-0.075289086,0.66248286,0.2689332,-0.2355012,-0.4286032,-0.7779899,-31.35,-26.531252,-7.6687503
1763129320711,6.835098,4.7198424,5.0422754,-0.046273008,0.5751292,0.20479241,-0.2355012,-0.4286032,-0.7779899,-31.35,-26.531252,-7.6687503
1763129320712,7.033104,4.6037908,5.200202,-0.046273008,0.5751292,0.20479241,-0.2355012,-0.4286032,-0.7779899,-31.35,-26.531252,-7.6687503
1763129320717,7.033104,4.6037908,5.200202,-0.046273008,0.5751292,0.20479241,-0.23200065,-0.42531618,-0.7788205,-31.35,-26.531252,-7.6687503
1763129320718,7.033104,4.6037908,5.200202,-0.046273008,0.5751292,0.20479241,-0.23200065,-0.42531618,-0.7788205,-31.050001,-27.6,-7.2937503
1763129320731,7.033104,4.6037908,5.200202,-0.022754714,0.5227475,0.14370593,-0.23200065,-0.42531618,-0.7788205,-31.050001,-27.6,-7.2937503
1763129320732,7.0576305,4.5972104,5.246862,-0.022754714,0.5227475,0.14370593,-0.23200065,-0.42531618,-0.7788205,-31.050001,-27.6,-7.2937503
1763129320738,7.0576305,4.5972104,5.246862,-0.022754714,0.5227475,0.14370593,-0.22865403,-0.42251876,-0.7796946,-31.050001,-27.6,-7.2937503
1763129320738,7.0576305,4.5972104,5.246862,-0.022754714,0.5227475,0.14370593,-0.22865403,-0.42251876,-0.7796946,-32.1375,-28.650002,-8.1
1763129320753,7.0576305,4.5972104,5.246862,0.004734202,0.48777553,0.1508836,-0.22865403,-0.42251876,-0.7796946,-32.1375,-28.650002,-8.1
1763129320754,6.8721867,4.5912285,5.2893343,0.004734202,0.48777553,0.1508836,-0.22865403,-0.42251876,-0.7796946,-32.1375,-28.650002,-8.1
1763129320758,6.8721867,4.5912285,5.2893343,0.004734202,0.48777553,0.1508836,-0.22552712,-0.4200661,-0.7803207,-32.1375,-28.650002,-8.1
1763129320758,6.8721867,4.5912285,5.2893343,0.004734202,0.48777553,0.1508836,-0.22552712,-0.4200661,-0.7803207,-30.525002,-25.518751,-4.8187504
1763129320773,6.8721867,4.5912285,5.2893343,0.015577052,0.504727,0.19013166,-0.22552712,-0.4200661,-0.7803207,-30.525002,-25.518751,-4.8187504
1763129320775,6.820741,4.5427737,5.151149,0.015577052,0.504727,0.19013166,-0.22552712,-0.4200661,-0.7803207,-30.525002,-25.518751,-4.8187504
1763129320779,6.820741,4.5427737,5.151149,0.015577052,0.504727,0.19013166,-0.2223222,-0.4175485,-0.7807268,-30.525002,-25.518751,-4.8187504
1763129320780,6.820741,4.5427737,5.151149,0.015577052,0.504727,0.19013166,-0.2223222,-0.4175485,-0.7807268,-31.143751,-26.175001,-8.75625
1763129320794,6.820741,4.5427737,5.151149,-0.0042760535,0.54764026,0.20479241,-0.2223222,-0.4175485,-0.7807268,-31.143751,-26.175001,-8.75625
1763129320795,6.750751,4.5158544,5.2929235,-0.0042760535,0.54764026,0.20479241,-0.2223222,-0.4175485,-0.7807268,-31.143751,-26.175001,-8.75625
1763129320798,6.750751,4.5158544,5.2929235,-0.0042760535,0.54764026,0.20479241,-0.21891311,-0.4146765,-0.78120226,-31.143751,-26.175001,-8.75625
1763129320798,6.750751,4.5158544,5.2929235,-0.0042760535,0.54764026,0.20479241,-0.21891311,-0.4146765,-0.78120226,-29.85,-26.212502,-9.13125
1763129320816,6.750751,4.5158544,5.2929235,0.013133593,0.66614807,0.20112723,-0.21891311,-0.4146765,-0.78120226,-29.85,-26.212502,-9.13125
1763129320817,6.6646094,4.5451665,5.4299126,0.013133593,0.66614807,0.20112723,-0.21891311,-0.4146765,-0.78120226,-29.85,-26.212502,-9.13125
1763129320817,6.6646094,4.5451665,5.4299126,0.013133593,0.66614807,0.20112723,-0.21444555,-0.411405,-0.7818864,-29.85,-26.212502,-9.13125
1763129320818,6.6646094,4.5451665,5.4299126,0.013133593,0.66614807,0.20112723,-0.21444555,-0.411405,-0.7818864,-32.25,-26.587502,-6.7125
1763129320836,6.6646094,4.5451665,5.4299126,0.064140804,0.7046325,0.17852524,-0.21444555,-0.411405,-0.7818864,-32.25,-26.587502,-6.7125
1763129320837,6.6358953,4.5320063,5.549554,0.064140804,0.7046325,0.17852524,-0.21444555,-0.411405,-0.7818864,-32.25,-26.587502,-6.7125
1763129320838,6.6358953,4.5320063,5.549554,0.064140804,0.7046325,0.17852524,-0.20930222,-0.40842098,-0.7824901,-32.25,-26.587502,-6.7125
1763129320839,6.6358953,4.5320063,5.549554,0.064140804,0.7046325,0.17852524,-0.20930222,-0.40842098,-0.7824901,-30.73125,-26.400002,-8.26875
1763129320859,6.6358953,4.5320063,5.549554,0.09666935,0.70677054,0.16142102,-0.20930222,-0.40842098,-0.7824901,-30.73125,-26.400002,-8.26875
1763129320860,6.6358953,4.5320063,5.549554,0.09666935,0.70677054,0.16142102,-0.20391557,-0.40570632,-0.78299254,-30.73125,-26.400002,-8.26875
1763129320861,6.6358953,4.5320063,5.549554,0.09666935,0.70677054,0.16142102,-0.20391557,-0.40570632,-0.78299254,-30.243752,-25.331251,-10.06875
1763129320862,6.5084777,4.45065,5.2366924,0.09666935,0.70677054,0.16142102,-0.20391557,-0.40570632,-0.78299254,-30.243752,-25.331251,-10.06875
1763129320878,6.07418,4.4775696,5.0309095,0.09666935,0.70677054,0.16142102,-0.20391557,-0.40570632,-0.78299254,-30.243752,-25.331251,-10.06875
1763129320883,6.07418,4.4775696,5.0309095,0.014813471,0.75899947,0.19700389,-0.20391557,-0.40570632,-0.78299254,-30.243752,-25.331251,-10.06875
1763129320884,6.07418,4.4775696,5.0309095,0.014813471,0.75899947,0.19700389,-0.19862626,-0.40204898,-0.7837103,-30.243752,-25.331251,-10.06875
1763129320885,6.07418,4.4775696,5.0309095,0.014813471,0.75899947,0.19700389,-0.19862626,-0.40204898,-0.7837103,-30.581251,-27.187502,-9.39375
1763129320898,6.07418,4.4775696,5.0309095,0.014813471,0.75899947,0.19700389,-0.19862626,-0.40204898,-0.7837103,-29.212502,-26.081251,-11.1
1763129320900,6.07418,4.4775696,5.0309095,-0.13255766,0.98211783,0.33902994,-0.19862626,-0.40204898,-0.7837103,-29.212502,-26.081251,-11.1
1763129320900,6.07418,4.4775696,5.0309095,-0.13255766,0.98211783,0.33902994,-0.19258557,-0.39595416,-0.7846796,-29.212502,-26.081251,-11.1
1763129320901,5.7080784,4.645665,5.087141,-0.13255766,0.98211783,0.33902994,-0.19258557,-0.39595416,-0.7846796,-29.212502,-26.081251,-11.1
1763129320918,5.7080784,4.645665,5.087141,-0.13255766,0.98211783,0.33902994,-0.19258557,-0.39595416,-0.7846796,-28.7625,-25.650002,-11.08125
1763129320921,5.7080784,4.645665,5.087141,-0.23976442,1.2941171,0.47754353,-0.19258557,-0.39595416,-0.7846796,-28.7625,-25.650002,-11.08125
1763129320922,5.7080784,4.645665,5.087141,-0.23976442,1.2941171,0.47754353,-0.18482365,-0.3873038,-0.7858412,-28.7625,-25.650002,-11.08125
1763129320923,5.895915,4.5930233,5.3539405,-0.23976442,1.2941171,0.47754353,-0.18482365,-0.3873038,-0.7858412,-28.7625,-25.650002,-11.08125
1763129320938,5.895915,4.5930233,5.3539405,-0.23976442,1.2941171,0.47754353,-0.18482365,-0.3873038,-0.7858412,-26.681252,-23.56875,-11.45625
1763129320941,5.895915,4.5930233,5.3539405,-0.31994042,1.6447535,0.527329,-0.18482365,-0.3873038,-0.7858412,-26.681252,-23.56875,-11.45625
1763129320943,5.895915,4.5930233,5.3539405,-0.31994042,1.6447535,0.527329,-0.17480306,-0.37613994,-0.7875931,-26.681252,-23.56875,-11.45625
1763129320944,5.725426,4.3005004,5.701498,-0.31994042,1.6447535,0.527329,-0.17480306,-0.37613994,-0.7875931,-26.681252,-23.56875,-11.45625
1763129320959,5.725426,4.3005004,5.701498,-0.31994042,1.6447535,0.527329,-0.17480306,-0.37613994,-0.7875931,-26.681252,-23.56875,-11.45625
1763129320962,5.725426,4.3005004,5.701498,-0.3517054,1.8083124,0.57925254,-0.17480306,-0.37613994,-0.7875931,-26.681252,-23.56875,-11.45625
1763129320963,5.725426,4.3005004,5.701498,-0.3517054,1.8083124,0.57925254,-0.1637675,-0.36363947,-0.78926086,-26.681252,-23.56875,-11.45625
1763129320964,5.296513,4.0534415,6.198607,-0.3517054,1.8083124,0.57925254,-0.1637675,-0.36363947,-0.78926086,-26.681252,-23.56875,-11.45625
1763129320978,5.296513,4.0534415,6.198607,-0.3517054,1.8083124,0.57925254,-0.1637675,-0.36363947,-0.78926086,-26.625002,-25.181252,-14.3625
1763129320984,5.296513,4.0534415,6.198607,-0.41034842,1.7537928,0.6734784,-0.1637675,-0.36363947,-0.78926086,-26.625002,-25.181252,-14.3625
1763129320985,5.296513,4.0534415,6.198607,-0.41034842,1.7537928,0.6734784,-0.15374476,-0.3505216,-0.7903426,-26.625002,-25.181252,-14.3625
1763129320987,5.1846485,3.9110687,6.4941206,-0.41034842,1.7537928,0.6734784,-0.15374476,-0.3505216,-0.7903426,-26.625002,-25.181252,-14.3625
1763129320997,5.1846485,3.9110687,6.4941206,-0.41034842,1.7537928,0.6734784,-0.15374476,-0.3505216,-0.7903426,-27.975,-24.69375,-15.187501
1763129321004,5.1846485,3.9110687,6.4941206,-0.41034842,1.7537928,0.6734784,-0.14586325,-0.33755234,-0.790834,-27.975,-24.69375,-15.187501
1763129321006,5.1846485,3.9110687,6.4941206,-0.48411033,1.5570943,0.7243329,-0.14586325,-0.33755234,-0.790834,-27.975,-24.69375,-15.187501
1763129321007,5.313861,3.6466618,6.7698936,-0.48411033,1.5570943,0.7243329,-0.14586325,-0.33755234,-0.790834,-27.975,-24.69375,-15.187501
1763129321018,5.313861,3.6466618,6.7698936,-0.48411033,1.5570943,0.7243329,-0.14586325,-0.33755234,-0.790834,-25.743752,-22.725,-14.137501
1763129321027,5.313861,3.6466618,6.7698936,-0.4914407,1.47814,0.6580541,-0.14586325,-0.33755234,-0.790834,-25.743752,-22.725,-14.137501
1763129321028,5.729614,3.5431721,7.4656067,-0.4914407,1.47814,0.6580541,-0.14586325,-0.33755234,-0.790834,-25.743752,-22.725,-14.137501
1763129321038,5.729614,3.5431721,7.4656067,-0.4914407,1.47814,0.6580541,-0.13852553,-0.32487622,-0.7913933,-25.743752,-22.725,-14.137501
1763129321039,5.729614,3.5431721,7.4656067,-0.4914407,1.47814,0.6580541,-0.13852553,-0.32487622,-0.7913933,-25.5375,-22.368752,-15.69375
1763129321046,5.729614,3.5431721,7.4656067,-0.3666716,1.4805835,0.5187769,-0.13852553,-0.32487622,-0.7913933,-25.5375,-22.368752,-15.69375
1763129321047,5.9503517,3.3230324,7.962117,-0.3666716,1.4805835,0.5187769,-0.13852553,-0.32487622,-0.7913933,-25.5375,-22.368752,-15.69375
1763129321060,5.9503517,3.3230324,7.962117,-0.3666716,1.4805835,0.5187769,-0.13009088,-0.31330326,-0.79204017,-25.5375,-22.368752,-15.69375
1763129321061,5.9503517,3.3230324,7.962117,-0.3666716,1.4805835,0.5187769,-0.13009088,-0.31330326,-0.79204017,-23.400002,-21.393751,-15.31875
1763129321069,5.9503517,3.3230324,7.962117,-0.17898338,1.4129303,0.3830122,-0.13009088,-0.31330326,-0.79204017,-23.400002,-21.393751,-15.31875
1763129321070,5.636294,3.1280174,8.076375,-0.17898338,1.4129303,0.3830122,-0.13009088,-0.31330326,-0.79204017,-23.400002,-21.393751,-15.31875
1763129321077,5.636294,3.1280174,8.076375,-0.17898338,1.4129303,0.3830122,-0.12090433,-0.30369058,-0.79263467,-23.400002,-21.393751,-15.31875
1763129321078,5.636294,3.1280174,8.076375,-0.17898338,1.4129303,0.3830122,-0.12090433,-0.30369058,-0.79263467,-23.400002,-21.393751,-15.31875
1763129321088,5.636294,3.1280174,8.076375,0.058337588,1.3168718,0.28787002,-0.12090433,-0.30369058,-0.79263467,-23.400002,-21.393751,-15.31875
1763129321089,5.5914283,3.1190443,8.222935,0.058337588,1.3168718,0.28787002,-0.12090433,-0.30369058,-0.79263467,-23.400002,-21.393751,-15.31875
1763129321098,5.5914283,3.1190443,8.222935,0.058337588,1.3168718,0.28787002,-0.11092504,-0.29658908,-0.79275,-23.400002,-21.393751,-15.31875
1763129321099,5.5914283,3.1190443,8.222935,0.058337588,1.3168718,0.28787002,-0.11092504,-0.29658908,-0.79275,-22.050001,-20.925001,-15.95625
1763129321109,5.5914283,3.1190443,8.222935,0.31535894,1.244637,0.19486587,-0.11092504,-0.29658908,-0.79275,-22.050001,-20.925001,-15.95625
1763129321110,5.621937,3.2973096,8.015956,0.31535894,1.244637,0.19486587,-0.11092504,-0.29658908,-0.79275,-22.050001,-20.925001,-15.95625
1763129321118,5.621937,3.2973096,8.015956,0.31535894,1.244637,0.19486587,-0.09988316,-0.29208016,-0.79238445,-22.050001,-20.925001,-15.95625
1763129321119,5.621937,3.2973096,8.015956,0.31535894,1.244637,0.19486587,-0.09988316,-0.29208016,-0.79238445,-24.31875,-23.53125,-15.618751
1763129321130,5.621937,3.2973096,8.015956,0.33337945,0.892168,-0.021838415,-0.09988316,-0.29208016,-0.79238445,-24.31875,-23.53125,-15.618751
1763129321131,5.4029937,3.1573296,8.10808,0.33337945,0.892168,-0.021838415,-0.09988316,-0.29208016,-0.79238445,-24.31875,-23.53125,-15.618751
1763129321137,5.4029937,3.1573296,8.10808,0.33337945,0.892168,-0.021838415,-0.09100352,-0.2899479,-0.79263085,-24.31875,-23.53125,-15.618751
1763129321138,5.4029937,3.1573296,8.10808,0.33337945,0.892168,-0.021838415,-0.09100352,-0.2899479,-0.79263085,-23.04375,-22.612501,-16.706251
1763129321152,5.4029937,3.1573296,8.10808,0.04856375,0.87002414,-0.39431322,-0.09100352,-0.2899479,-0.79263085,-23.04375,-22.612501,-16.706251
1763129321152,4.9639106,3.3182468,7.4883385,0.04856375,0.87002414,-0.39431322,-0.09100352,-0.2899479,-0.79263085,-23.04375,-22.612501,-16.706251
1763129321157,4.9639106,3.3182468,7.4883385,0.04856375,0.87002414,-0.39431322,-0.082800165,-0.28585422,-0.7957817,-23.04375,-22.612501,-16.706251
1763129321157,4.9639106,3.3182468,7.4883385,0.04856375,0.87002414,-0.39431322,-0.082800165,-0.28585422,-0.7957817,-22.575,-21.54375,-18.056252
1763129321172,4.9639106,3.3182468,7.4883385,-0.28053966,0.79152805,-0.4404335,-0.082800165,-0.28585422,-0.7957817,-22.575,-21.54375,-18.056252
1763129321173,3.5814574,3.5641093,8.079366,-0.28053966,0.79152805,-0.4404335,-0.082800165,-0.28585422,-0.7957817,-22.575,-21.54375,-18.056252
1763129321178,3.5814574,3.5641093,8.079366,-0.28053966,0.79152805,-0.4404335,-0.07677528,-0.27959394,-0.79985285,-22.575,-21.54375,-18.056252
1763129321179,3.5814574,3.5641093,8.079366,-0.28053966,0.79152805,-0.4404335,-0.07677528,-0.27959394,-0.79985285,-21.73125,-22.650002,-19.48125
1763129321193,3.5814574,3.5641093,8.079366,-0.38316494,0.84039724,-0.16798781,-0.07677528,-0.27959394,-0.79985285,-21.73125,-22.650002,-19.48125
1763129321194,3.001796,3.7184465,8.52802,-0.38316494,0.84039724,-0.16798781,-0.07677528,-0.27959394,-0.79985285,-21.73125,-22.650002,-19.48125
1763129321199,3.001796,3.7184465,8.52802,-0.38316494,0.84039724,-0.16798781,-0.07122121,-0.2718668,-0.80246925,-21.73125,-22.650002,-19.48125
1763129321200,3.001796,3.7184465,8.52802,-0.38316494,0.84039724,-0.16798781,-0.07122121,-0.2718668,-0.80246925,-19.59375,-21.018751,-17.925001
1763129321214,3.001796,3.7184465,8.52802,-0.4677697,1.2560908,0.050396346,-0.07122121,-0.2718668,-0.80246925,-19.59375,-21.018751,-17.925001
1763129321216,3.5712879,3.8416767,8.799605,-0.4677697,1.2560908,0.050396346,-0.07122121,-0.2718668,-0.80246925,-19.59375,-21.018751,-17.925001
1763129321220,3.5712879,3.8416767,8.799605,-0.4677697,1.2560908,0.050396346,-0.06306324,-0.2609053,-0.80420476,-19.59375,-21.018751,-17.925001
1763129321221,3.5712879,3.8416767,8.799605,-0.4677697,1.2560908,0.050396346,-0.06306324,-0.2609053,-0.80420476,-19.556252,-20.362501,-18.993752
1763129321235,3.4923246,3.8321054,9.09153,-0.4677697,1.2560908,0.050396346,-0.06306324,-0.2609053,-0.80420476,-19.556252,-20.362501,-18.993752
1763129321236,3.4923246,3.8321054,9.09153,-0.37079492,1.8727587,0.24388777,-0.06306324,-0.2609053,-0.80420476,-19.556252,-20.362501,-18.993752
1763129321239,3.4923246,3.8321054,9.09153,-0.37079492,1.8727587,0.24388777,-0.049872357,-0.24723218,-0.8048006,-19.556252,-20.362501,-18.993752
1763129321240,3.4923246,3.8321054,9.09153,-0.37079492,1.8727587,0.24388777,-0.049872357,-0.24723218,-0.8048006,-18.956251,-20.868752,-18.84375
1763129321256,3.4923246,3.8321054,9.09153,-0.14569125,1.9788965,0.48456848,-0.049872357,-0.24723218,-0.8048006,-18.956251,-20.868752,-18.84375
1763129321257,2.757728,3.7280176,8.928818,-0.14569125,1.9788965,0.48456848,-0.049872357,-0.24723218,-0.8048006,-18.956251,-20.868752,-18.84375
1763129321259,2.757728,3.7280176,8.928818,-0.14569125,1.9788965,0.48456848,-0.035182063,-0.23464744,-0.8031833,-18.956251,-20.868752,-18.84375
1763129321261,2.757728,3.7280176,8.928818,-0.14569125,1.9788965,0.48456848,-0.035182063,-0.23464744,-0.8031833,-17.325,-20.6625,-19.612501
1763129321278,2.757728,3.7280176,8.928818,-0.14569125,1.9788965,0.48456848,-0.022464976,-0.22427835,-0.7994146,-17.325,-20.6625,-19.612501
1763129321279,2.757728,3.7280176,8.928818,-0.031917684,1.7212642,0.72188944,-0.022464976,-0.22427835,-0.7994146,-17.325,-20.6625,-19.612501
1763129321280,2.1667008,3.5557344,8.712866,-0.031917684,1.7212642,0.72188944,-0.022464976,-0.22427835,-0.7994146,-17.325,-20.6625,-19.612501
1763129321282,2.1667008,3.5557344,8.712866,-0.031917684,1.7212642,0.72188944,-0.022464976,-0.22427835,-0.7994146,-15.637501,-19.95,-20.0625
1763129321299,2.1667008,3.5557344,8.712866,-0.031917684,1.7212642,0.72188944,-0.022464976,-0.22427835,-0.7994146,-15.750001,-19.2,-21.806252
1763129321300,2.1667008,3.5557344,8.712866,-0.11102467,1.5086833,0.7382301,-0.022464976,-0.22427835,-0.7994146,-15.750001,-19.2,-21.806252
1763129321302,2.1667008,3.5557344,8.712866,-0.11102467,1.5086833,0.7382301,-0.011967247,-0.2143596,-0.79536563,-15.750001,-19.2,-21.806252
1763129321304,2.3150558,3.3661032,8.763713,-0.11102467,1.5086833,0.7382301,-0.011967247,-0.2143596,-0.79536563,-15.750001,-19.2,-21.806252
1763129321317,2.3150558,3.3661032,8.763713,-0.11102467,1.5086833,0.7382301,-0.011967247,-0.2143596,-0.79536563,-14.625001,-18.13125,-23.118752
1763129321319,2.3150558,3.3661032,8.763713,-0.16279547,1.2854122,0.6250674,-0.011967247,-0.2143596,-0.79536563,-14.625001,-18.13125,-23.118752
1763129321320,2.3150558,3.3661032,8.763713,-0.16279547,1.2854122,0.6250674,-0.0035230662,-0.20530713,-0.79195064,-14.625001,-18.13125,-23.118752
1763129321321,2.3814569,3.4887354,9.212367,-0.16279547,1.2854122,0.6250674,-0.0035230662,-0.20530713,-0.79195064,-14.625001,-18.13125,-23.118752
1763129321338,2.3814569,3.4887354,9.212367,-0.16279547,1.2854122,0.6250674,-0.0035230662,-0.20530713,-0.79195064,-14.493751,-19.706251,-22.368752
1763129321341,2.3814569,3.4887354,9.212367,-0.023518294,0.94913113,0.5371029,-0.0035230662,-0.20530713,-0.79195064,-14.493751,-19.706251,-22.368752
1763129321343,2.3814569,3.4887354,9.212367,-0.023518294,0.94913113,0.5371029,0.003133722,-0.19942202,-0.78861594,-14.493751,-19.706251,-22.368752
1763129321344,2.2217357,3.2925239,9.390633,-0.023518294,0.94913113,0.5371029,0.003133722,-0.19942202,-0.78861594,-14.493751,-19.706251,-22.368752
1763129321360,2.2217357,3.2925239,9.390633,-0.023518294,0.94913113,0.5371029,0.003133722,-0.19942202,-0.78861594,-12.675,-17.53125,-23.025002
1763129321361,2.2073789,3.0963125,9.127422,-0.023518294,0.94913113,0.5371029,0.003133722,-0.19942202,-0.78861594,-12.675,-17.53125,-23.025002
1763129321363,2.2073789,3.0963125,9.127422,0.12751803,0.6815724,0.48029244,0.003133722,-0.19942202,-0.78861594,-12.675,-17.53125,-23.025002
1763129321364,2.2073789,3.0963125,9.127422,0.12751803,0.6815724,0.48029244,0.008563422,-0.19633566,-0.78534245,-12.675,-17.53125,-23.025002
1763129321379,2.2073789,3.0963125,9.127422,0.12751803,0.6815724,0.48029244,0.008563422,-0.19633566,-0.78534245,-15.7875,-20.493752,-21.9375
1763129321382,2.352743,3.246462,9.126225,0.12751803,0.6815724,0.48029244,0.008563422,-0.19633566,-0.78534245,-15.7875,-20.493752,-21.9375
1763129321384,2.352743,3.246462,9.126225,0.17027856,0.523053,0.40057456,0.008563422,-0.19633566,-0.78534245,-15.7875,-20.493752,-21.9375
1763129321385,2.352743,3.246462,9.126225,0.17027856,0.523053,0.40057456,0.013045024,-0.19455574,-0.7825011,-15.7875,-20.493752,-21.9375
1763129321397,2.352743,3.246462,9.126225,0.17027856,0.523053,0.40057456,0.013045024,-0.19455574,-0.7825011,-12.88125,-17.8875,-22.518751
1763129321403,2.352743,3.246462,9.126225,0.1291979,0.42607817,0.29626942,0.013045024,-0.19455574,-0.7825011,-12.88125,-17.8875,-22.518751
1763129321404,2.352743,3.246462,9.126225,0.1291979,0.42607817,0.29626942,0.016677689,-0.19307414,-0.78032583,-12.88125,-17.8875,-22.518751
1763129321406,2.2911277,3.2004004,8.950353,0.1291979,0.42607817,0.29626942,0.016677689,-0.19307414,-0.78032583,-12.88125,-17.8875,-22.518751
1763129321418,2.2911277,3.2004004,8.950353,0.1291979,0.42607817,0.29626942,0.016677689,-0.19307414,-0.78032583,-12.356251,-17.2875,-21.31875
1763129321426,2.2911277,3.2004004,8.950353,0.1291979,0.42607817,0.29626942,0.01913221,-0.19188775,-0.7788799,-12.356251,-17.2875,-21.31875
1763129321427,2.2911277,3.2004004,8.950353,0.07223476,0.30146176,0.19776747,0.01913221,-0.19188775,-0.7788799,-12.356251,-17.2875,-21.31875
1763129321428,2.1601207,3.1597223,9.012567,0.07223476,0.30146176,0.19776747,0.01913221,-0.19188775,-0.7788799,-12.356251,-17.2875,-21.31875
1763129321437,2.1601207,3.1597223,9.012567,0.07223476,0.30146176,0.19776747,0.01913221,-0.19188775,-0.7788799,-12.093751,-17.8875,-24.2625
1763129321444,2.1601207,3.1597223,9.012567,0.041996952,0.3158171,0.13637556,0.01913221,-0.19188775,-0.7788799,-12.093751,-17.8875,-24.2625
1763129321445,2.0374885,3.0897322,8.810373,0.041996952,0.3158171,0.13637556,0.01913221,-0.19188775,-0.7788799,-12.093751,-17.8875,-24.2625
1763129321446,2.0374885,3.0897322,8.810373,0.041996952,0.3158171,0.13637556,0.021642521,-0.19032384,-0.7778855,-12.093751,-17.8875,-24.2625
1763129321459,2.0374885,3.0897322,8.810373,0.041996952,0.3158171,0.13637556,0.021642521,-0.19032384,-0.7778855,-12.281251,-17.456251,-25.031252
1763129321468,1.9465612,2.7601209,8.414361,0.041996952,0.3158171,0.13637556,0.021642521,-0.19032384,-0.7778855,-12.281251,-17.456251,-25.031252
1763129321469,1.9465612,2.7601209,8.414361,-0.06582068,0.3243692,0.08811724,0.021642521,-0.19032384,-0.7778855,-12.281251,-17.456251,-25.031252
1763129321477,1.9465612,2.7601209,8.414361,-0.06582068,0.3243692,0.08811724,0.023654398,-0.18781343,-0.7773853,-12.281251,-17.456251,-25.031252
1763129321478,1.9465612,2.7601209,8.414361,-0.06582068,0.3243692,0.08811724,0.023654398,-0.18781343,-0.7773853,-12.1125,-18.525002,-23.94375
1763129321487,1.9465612,2.7601209,8.414361,-0.2780962,-0.1753182,-0.13973531,0.023654398,-0.18781343,-0.7773853,-12.1125,-18.525002,-23.94375
1763129321488,1.8125632,2.1074786,8.595019,-0.2780962,-0.1753182,-0.13973531,0.023654398,-0.18781343,-0.7773853,-12.1125,-18.525002,-23.94375
1763129321497,1.8125632,2.1074786,8.595019,-0.2780962,-0.1753182,-0.13973531,0.020664815,-0.18662809,-0.77891713,-12.1125,-18.525002,-23.94375
1763129321498,1.8125632,2.1074786,8.595019,-0.2780962,-0.1753182,-0.13973531,0.020664815,-0.18662809,-0.77891713,-12.562501,-18.300001,-22.78125
1763129321510,1.8125632,2.1074786,8.595019,-0.5369501,-0.422413,-0.25014913,0.020664815,-0.18662809,-0.77891713,-12.562501,-18.300001,-22.78125
1763129321511,1.6163517,2.2815564,8.242078,-0.5369501,-0.422413,-0.25014913,0.020664815,-0.18662809,-0.77891713,-12.562501,-18.300001,-22.78125
1763129321518,1.6163517,2.2815564,8.242078,-0.5369501,-0.422413,-0.25014913,0.014120736,-0.18470326,-0.78194714,-12.562501,-18.300001,-22.78125
1763129321519,1.6163517,2.2815564,8.242078,-0.5369501,-0.422413,-0.25014913,0.014120736,-0.18470326,-0.78194714,-11.625,-17.75625,-22.03125
1763129321528,1.6163517,2.2815564,8.242078,-0.7150172,-0.5254964,-0.21731515,0.014120736,-0.18470326,-0.78194714,-11.625,-17.75625,-22.03125
1763129321529,1.8598214,2.5842485,8.673384,-0.7150172,-0.5254964,-0.21731515,0.014120736,-0.18470326,-0.78194714,-11.625,-17.75625,-22.03125
1763129321538,1.8598214,2.5842485,8.673384,-0.7150172,-0.5254964,-0.21731515,0.0057260245,-0.1819899,-0.7848539,-11.625,-17.75625,-22.03125
1763129321539,1.8598214,2.5842485,8.673384,-0.7150172,-0.5254964,-0.21731515,0.0057260245,-0.1819899,-0.7848539,-13.14375,-18.45,-23.98125
1763129321552,1.8598214,2.5842485,8.673384,-0.7221949,-0.5836813,-0.23304491,0.0057260245,-0.1819899,-0.7848539,-13.14375,-18.45,-23.98125
1763129321554,2.062613,2.5184457,8.920443,-0.7221949,-0.5836813,-0.23304491,0.0057260245,-0.1819899,-0.7848539,-13.14375,-18.45,-23.98125
1763129321559,2.062613,2.5184457,8.920443,-0.7221949,-0.5836813,-0.23304491,-0.0030909725,-0.17962433,-0.7876636,-13.14375,-18.45,-23.98125
1763129321560,2.062613,2.5184457,8.920443,-0.7221949,-0.5836813,-0.23304491,-0.0030909725,-0.17962433,-0.7876636,-14.3625,-18.225,-22.125
1763129321572,2.062613,2.5184457,8.920443,-0.6339249,-0.80695236,-0.32100943,-0.0030909725,-0.17962433,-0.7876636,-14.3625,-18.225,-22.125
1763129321573,2.5411777,2.391028,9.189635,-0.6339249,-0.80695236,-0.32100943,-0.0030909725,-0.17962433,-0.7876636,-14.3625,-18.225,-22.125
1763129321578,2.5411777,2.391028,9.189635,-0.6339249,-0.80695236,-0.32100943,-0.013057502,-0.17934786,-0.79076964,-14.3625,-18.225,-22.125
1763129321578,2.5411777,2.391028,9.189635,-0.6339249,-0.80695236,-0.32100943,-0.013057502,-0.17934786,-0.79076964,-13.968751,-18.150002,-23.23125
1763129321593,2.5411777,2.391028,9.189635,-0.5772672,-0.95753056,-0.46364638,-0.013057502,-0.17934786,-0.79076964,-13.968751,-18.150002,-23.23125
1763129321594,2.477768,2.3688943,9.067003,-0.5772672,-0.95753056,-0.46364638,-0.013057502,-0.17934786,-0.79076964,-13.968751,-18.150002,-23.23125
1763129321598,2.477768,2.3688943,9.067003,-0.5772672,-0.95753056,-0.46364638,-0.023831272,-0.1804583,-0.79484826,-13.968751,-18.150002,-23.23125
1763129321599,2.477768,2.3688943,9.067003,-0.5772672,-0.95753056,-0.46364638,-0.023831272,-0.1804583,-0.79484826,-15.900001,-18.112501,-23.212502
1763129321613,2.477768,2.3688943,9.067003,-0.5593994,-0.9772309,-0.4989238,-0.023831272,-0.1804583,-0.79484826,-15.900001,-18.112501,-23.212502
1763129321614,2.4963121,2.405385,9.083155,-0.5593994,-0.9772309,-0.4989238,-0.023831272,-0.1804583,-0.79484826,-15.900001,-18.112501,-23.212502
1763129321619,2.4963121,2.405385,9.083155,-0.5593994,-0.9772309,-0.4989238,-0.034506805,-0.18179889,-0.798874,-15.900001,-18.112501,-23.212502
1763129321620,2.4963121,2.405385,9.083155,-0.5593994,-0.9772309,-0.4989238,-0.034506805,-0.18179889,-0.798874,-15.637501,-17.7,-20.0625
1763129321634,2.4963121,2.405385,9.083155,-0.48365217,-1.0109812,-0.46731156,-0.034506805,-0.18179889,-0.798874,-15.637501,-17.7,-20.0625
1763129321635,2.8055844,2.4921248,9.056235,-0.48365217,-1.0109812,-0.46731156,-0.034506805,-0.18179889,-0.798874,-15.637501,-17.7,-20.0625
1763129321639,2.8055844,2.4921248,9.056235,-0.48365217,-1.0109812,-0.46731156,-0.04499143,-0.1839285,-0.8023354,-15.637501,-17.7,-20.0625
1763129321640,2.8055844,2.4921248,9.056235,-0.48365217,-1.0109812,-0.46731156,-0.04499143,-0.1839285,-0.8023354,-15.675,-18.337502,-18.993752
1763129321655,2.8055844,2.4921248,9.056235,-0.3744601,-0.98700476,-0.42928523,-0.04499143,-0.1839285,-0.8023354,-15.675,-18.337502,-18.993752
1763129321656,3.2650065,2.236691,9.092726,-0.3744601,-0.98700476,-0.42928523,-0.04499143,-0.1839285,-0.8023354,-15.675,-18.337502,-18.993752
1763129321659,3.2650065,2.236691,9.092726,-0.3744601,-0.98700476,-0.42928523,-0.054711033,-0.18682617,-0.805262,-15.675,-18.337502,-18.993752
1763129321662,3.2650065,2.236691,9.092726,-0.3744601,-0.98700476,-0.42928523,-0.054711033,-0.18682617,-0.805262,-17.5125,-17.98125,-19.63125
1763129321676,3.2650065,2.236691,9.092726,-0.2829831,-0.8659008,-0.46639526,-0.054711033,-0.18682617,-0.805262,-17.5125,-17.98125,-19.63125
1763129321676,3.4139597,2.1744776,9.113664,-0.2829831,-0.8659008,-0.46639526,-0.054711033,-0.18682617,-0.805262,-17.5125,-17.98125,-19.63125
1763129321677,3.4139597,2.1744776,9.113664,-0.2829831,-0.8659008,-0.46639526,-0.062924184,-0.18975288,-0.80828625,-17.5125,-17.98125,-19.63125
1763129321678,3.4139597,2.1744776,9.113664,-0.2829831,-0.8659008,-0.46639526,-0.062924184,-0.18975288,-0.80828625,-18.206251,-17.79375,-17.75625
1763129321698,3.4139597,2.1744776,9.113664,-0.2829831,-0.8659008,-0.46639526,-0.06983313,-0.19341084,-0.81155664,-18.206251,-17.79375,-17.75625
1763129321699,3.4139597,2.1744776,9.113664,-0.2829831,-0.8659008,-0.46639526,-0.06983313,-0.19341084,-0.81155664,-19.81875,-18.675001,-19.21875
1763129321700,3.4139597,2.1744776,9.113664,-0.1583667,-0.810923,-0.5450441,-0.06983313,-0.19341084,-0.81155664,-19.81875,-18.675001,-19.21875
1763129321701,3.196811,2.3018954,9.115458,-0.1583667,-0.810923,-0.5450441,-0.06983313,-0.19341084,-0.81155664,-19.81875,-18.675001,-19.21875
1763129321718,3.196811,2.3018954,9.115458,0.008246674,-0.8309288,-0.6149881,-0.06983313,-0.19341084,-0.81155664,-19.81875,-18.675001,-19.21875
1763129321720,3.196811,2.3018954,9.115458,0.008246674,-0.8309288,-0.6149881,-0.06983313,-0.19341084,-0.81155664,-20.456251,-21.056252,-19.06875
1763129321721,3.196811,2.3018954,9.115458,0.008246674,-0.8309288,-0.6149881,-0.07567528,-0.19861215,-0.81464714,-20.456251,-21.056252,-19.06875
1763129321722,3.178865,2.248057,9.57488,0.008246674,-0.8309288,-0.6149881,-0.07567528,-0.19861215,-0.81464714,-20.456251,-21.056252,-19.06875
1763129321738,3.178865,2.248057,9.57488,0.008246674,-0.8309288,-0.6149881,-0.07567528,-0.19861215,-0.81464714,-19.21875,-18.525002,-18.768751
1763129321739,3.178865,2.248057,9.57488,0.008246674,-0.8309288,-0.6149881,-0.07894061,-0.2049859,-0.81760603,-19.21875,-18.525002,-18.768751
1763129321740,3.178865,2.248057,9.57488,0.24358234,-0.69821846,-0.6647736,-0.07894061,-0.2049859,-0.81760603,-19.21875,-18.525002,-18.768751
1763129321742,3.7220356,2.4179473,9.127422,0.24358234,-0.69821846,-0.6647736,-0.07894061,-0.2049859,-0.81760603,-19.21875,-18.525002,-18.768751
1763129321757,3.7220356,2.4179473,9.127422,0.24358234,-0.69821846,-0.6647736,-0.07894061,-0.2049859,-0.81760603,-19.81875,-18.675001,-19.21875
1763129321760,3.7220356,2.4179473,9.127422,0.24358234,-0.69821846,-0.6647736,-0.082507856,-0.2142122,-0.82076555,-19.81875,-18.675001,-19.21875
1763129321762,3.7220356,2.4179473,9.127422,0.4346303,-0.8836159,-0.82069683,-0.082507856,-0.2142122,-0.82076555,-19.81875,-18.675001,-19.21875
1763129321763,3.6293137,2.748755,9.092726,0.4346303,-0.8836159,-0.82069683,-0.082507856,-0.2142122,-0.82076555,-19.81875,-18.675001,-19.21875
1763129321778,3.6293137,2.748755,9.092726,0.4346303,-0.8836159,-0.82069683,-0.082507856,-0.2142122,-0.82076555,-21.4125,-20.79375,-17.925001
1763129321781,3.6293137,2.748755,9.092726,0.4346303,-0.8836159,-0.82069683,-0.08502849,-0.22393288,-0.82395315,-21.4125,-20.79375,-17.925001
1763129321782,3.6293137,2.748755,9.092726,0.5103775,-0.8457423,-0.9005674,-0.08502849,-0.22393288,-0.82395315,-21.4125,-20.79375,-17.925001
1763129321783,3.507878,2.7194428,8.991031,0.5103775,-0.8457423,-0.9005674,-0.08502849,-0.22393288,-0.82395315,-21.4125,-20.79375,-17.925001
1763129321798,3.507878,2.7194428,8.991031,0.5103775,-0.8457423,-0.9005674,-0.08502849,-0.22393288,-0.82395315,-21.84375,-20.56875,-17.34375
1763129321801,3.507878,2.7194428,8.991031,0.5103775,-0.8457423,-0.9005674,-0.08704337,-0.23244166,-0.8268728,-21.84375,-20.56875,-17.34375
1763129321803,3.507878,2.7194428,8.991031,0.45982847,-0.7348703,-0.82482016,-0.08704337,-0.23244166,-0.8268728,-21.84375,-20.56875,-17.34375
1763129321804,3.7423747,2.7822545,8.2678,0.45982847,-0.7348703,-0.82482016,-0.08704337,-0.23244166,-0.8268728,-21.84375,-20.56875,-17.34375
1763129321818,3.7423747,2.7822545,8.2678,0.45982847,-0.7348703,-0.82482016,-0.08704337,-0.23244166,-0.8268728,-21.956251,-21.393751,-18.225
1763129321823,3.7423747,2.7822545,8.2678,0.16294818,-0.5390882,-0.5528326,-0.08704337,-0.23244166,-0.8268728,-21.956251,-21.393751,-18.225
1763129321824,3.7423747,2.7822545,8.2678,0.16294818,-0.5390882,-0.5528326,-0.08966293,-0.23714921,-0.829142,-21.956251,-21.393751,-18.225
1763129321826,3.603591,2.9443684,7.626524,0.16294818,-0.5390882,-0.5528326,-0.08966293,-0.23714921,-0.829142,-21.956251,-21.393751,-18.225
1763129321837,3.603591,2.9443684,7.626524,0.16294818,-0.5390882,-0.5528326,-0.08966293,-0.23714921,-0.829142,-23.00625,-22.7625,-18.16875
1763129321844,3.603591,2.9443684,7.626524,0.16294818,-0.5390882,-0.5528326,-0.09269311,-0.23643528,-0.83123684,-23.00625,-22.7625,-18.16875
1763129321845,3.603591,2.9443684,7.626524,-0.2751946,-0.2591594,-0.29290965,-0.09269311,-0.23643528,-0.83123684,-23.00625,-22.7625,-18.16875
1763129321846,3.5497525,2.9587252,7.4159555,-0.2751946,-0.2591594,-0.29290965,-0.09269311,-0.23643528,-0.83123684,-23.00625,-22.7625,-18.16875
1763129321859,3.5497525,2.9587252,7.4159555,-0.2751946,-0.2591594,-0.29290965,-0.09269311,-0.23643528,-0.83123684,-21.525002,-21.618752,-18.0375
1763129321865,3.5497525,2.9587252,7.4159555,-0.2751946,-0.2591594,-0.29290965,-0.09593925,-0.2315817,-0.83343816,-21.525002,-21.618752,-18.0375
1763129321866,3.5497525,2.9587252,7.4159555,-0.60857403,-0.044134982,-0.1301142,-0.09593925,-0.2315817,-0.83343816,-21.525002,-21.618752,-18.0375
1763129321867,3.4492538,2.8342984,7.9334035,-0.60857403,-0.044134982,-0.1301142,-0.09593925,-0.2315817,-0.83343816,-21.525002,-21.618752,-18.0375
1763129321878,3.4492538,2.8342984,7.9334035,-0.60857403,-0.044134982,-0.1301142,-0.09593925,-0.2315817,-0.83343816,-22.3125,-20.831251,-17.268751
1763129321886,3.4492538,2.8342984,7.9334035,-0.65881765,0.014966187,-0.020005822,-0.09593925,-0.2315817,-0.83343816,-22.3125,-20.831251,-17.268751
1763129321887,3.473182,2.7649066,8.596813,-0.65881765,0.014966187,-0.020005822,-0.09593925,-0.2315817,-0.83343816,-22.3125,-20.831251,-17.268751
1763129321899,3.473182,2.7649066,8.596813,-0.65881765,0.014966187,-0.020005822,-0.09593925,-0.2315817,-0.83343816,-20.94375,-19.875,-16.5
1763129321899,3.473182,2.7649066,8.596813,-0.65881765,0.014966187,-0.020005822,-0.099054106,-0.22583513,-0.8350206,-20.94375,-19.875,-16.5
1763129321910,3.473182,2.7649066,8.596813,-0.45158178,0.005497783,0.028710645,-0.099054106,-0.22583513,-0.8350206,-20.94375,-19.875,-16.5
1763129321911,3.6370904,2.7230322,9.060423,-0.45158178,0.005497783,0.028710645,-0.099054106,-0.22583513,-0.8350206,-20.94375,-19.875,-16.5
1763129321918,3.6370904,2.7230322,9.060423,-0.45158178,0.005497783,0.028710645,-0.101276904,-0.22182916,-0.8358518,-20.94375,-19.875,-16.5
1763129321918,3.6370904,2.7230322,9.060423,-0.45158178,0.005497783,0.028710645,-0.101276904,-0.22182916,-0.8358518,-21.206251,-19.78125,-17.5125
1763129321927,3.6370904,2.7230322,9.060423,-0.13271037,0.0010690134,0.01847866,-0.101276904,-0.22182916,-0.8358518,-21.206251,-19.78125,-17.5125
1763129321928,3.8590248,2.693122,9.097511,-0.13271037,0.0010690134,0.01847866,-0.101276904,-0.22182916,-0.8358518,-21.206251,-19.78125,-17.5125
1763129321937,3.8590248,2.693122,9.097511,-0.13271037,0.0010690134,0.01847866,-0.10190376,-0.2206072,-0.83602905,-21.206251,-19.78125,-17.5125
1763129321938,3.8590248,2.693122,9.097511,-0.13271037,0.0010690134,0.01847866,-0.10190376,-0.2206072,-0.83602905,-22.518751,-21.056252,-18.46875
1763129321952,3.8590248,2.693122,9.097511,0.12476913,-0.062613636,-0.012064579,-0.10190376,-0.2206072,-0.83602905,-22.518751,-21.056252,-18.46875
1763129321953,3.8267217,2.7343981,9.08136,0.12476913,-0.062613636,-0.012064579,-0.10190376,-0.2206072,-0.83602905,-22.518751,-21.056252,-18.46875
1763129321959,3.8267217,2.7343981,9.08136,0.12476913,-0.062613636,-0.012064579,-0.101766676,-0.22199976,-0.83575016,-22.518751,-21.056252,-18.46875
1763129321960,3.8267217,2.7343981,9.08136,0.12476913,-0.062613636,-0.012064579,-0.101766676,-0.22199976,-0.83575016,-22.125,-21.91875,-17.98125
1763129321970,3.8267217,2.7343981,9.08136,0.25152358,-0.13591741,-0.02489274,-0.101766676,-0.22199976,-0.83575016,-22.125,-21.91875,-17.98125
1763129321971,3.891926,2.6835506,8.933603,0.25152358,-0.13591741,-0.02489274,-0.101766676,-0.22199976,-0.83575016,-22.125,-21.91875,-17.98125
1763129321978,3.891926,2.6835506,8.933603,0.25152358,-0.13591741,-0.02489274,-0.10157317,-0.2248887,-0.8351539,-22.125,-21.91875,-17.98125
1763129321979,3.891926,2.6835506,8.933603,0.25152358,-0.13591741,-0.02489274,-0.10157317,-0.2248887,-0.8351539,-21.225,-19.7625,-16.462502
1763129321994,3.891926,2.6835506,8.933603,0.32559094,-0.14874557,-0.07437278,-0.10157317,-0.2248887,-0.8351539,-21.225,-19.7625,-16.462502
1763129321995,3.984648,2.7391837,8.443074,0.32559094,-0.14874557,-0.07437278,-0.10157317,-0.2248887,-0.8351539,-21.225,-19.7625,-16.462502
1763129321998,3.984648,2.7391837,8.443074,0.32559094,-0.14874557,-0.07437278,-0.10104294,-0.22852643,-0.8346577,-21.225,-19.7625,-16.462502
1763129321999,3.984648,2.7391837,8.443074,0.32559094,-0.14874557,-0.07437278,-0.10104294,-0.22852643,-0.8346577,-21.84375,-20.56875,-17.79375
1763129322012,3.984648,2.7391837,8.443074,0.41523534,0.123089254,-0.055435978,-0.10104294,-0.22852643,-0.8346577,-21.84375,-20.56875,-17.79375
1763129322012,3.987639,2.7912276,8.355737,0.41523534,0.123089254,-0.055435978,-0.10104294,-0.22852643,-0.8346577,-21.84375,-20.56875,-17.79375
1763129322017,3.987639,2.7912276,8.355737,0.41523534,0.123089254,-0.055435978,-0.09777597,-0.23158278,-0.834122,-21.84375,-20.56875,-17.79375
1763129322018,3.987639,2.7912276,8.355737,0.41523534,0.123089254,-0.055435978,-0.09777597,-0.23158278,-0.834122,-23.587502,-22.275002,-18.31875
1763129322035,3.987639,2.7912276,8.355737,0.32849252,0.19394957,0.01970039,-0.09777597,-0.23158278,-0.834122,-23.587502,-22.275002,-18.31875
1763129322036,3.6448672,2.7361927,7.7832537,0.32849252,0.19394957,0.01970039,-0.09777597,-0.23158278,-0.834122,-23.587502,-22.275002,-18.31875
1763129322038,3.6448672,2.7361927,7.7832537,0.32849252,0.19394957,0.01970039,-0.09453139,-0.23344524,-0.83347046,-23.587502,-22.275002,-18.31875
1763129322039,3.6448672,2.7361927,7.7832537,0.32849252,0.19394957,0.01970039,-0.09453139,-0.23344524,-0.83347046,-24.075,-21.88125,-15.543751
1763129322054,3.6448672,2.7361927,7.7832537,0.018936807,0.062002774,0.032375835,-0.09453139,-0.23344524,-0.83347046,-24.075,-21.88125,-15.543751
1763129322055,3.8255253,2.7601209,7.64447,0.018936807,0.062002774,0.032375835,-0.09453139,-0.23344524,-0.83347046,-24.075,-21.88125,-15.543751
1763129322061,3.8255253,2.7601209,7.64447,0.018936807,0.062002774,0.032375835,-0.094002984,-0.23329823,-0.8333129,-24.075,-21.88125,-15.543751
1763129322062,3.8255253,2.7601209,7.64447,0.018936807,0.062002774,0.032375835,-0.094002984,-0.23329823,-0.8333129,-22.743752,-22.06875,-17.362501
1763129322075,3.8255253,2.7601209,7.64447,-0.34193155,-0.06994402,-0.012370012,-0.094002984,-0.23329823,-0.8333129,-22.743752,-22.06875,-17.362501
1763129322075,3.9738803,2.6626134,7.8311105,-0.34193155,-0.06994402,-0.012370012,-0.094002984,-0.23329823,-0.8333129,-22.743752,-22.06875,-17.362501
1763129322078,3.9738803,2.6626134,7.8311105,-0.34193155,-0.06994402,-0.012370012,-0.096415766,-0.2307685,-0.83412254,-22.743752,-22.06875,-17.362501
1763129322078,3.9738803,2.6626134,7.8311105,-0.34193155,-0.06994402,-0.012370012,-0.096415766,-0.2307685,-0.83412254,-22.706251,-20.775002,-17.550001
1763129322105,3.9738803,2.6626134,7.8311105,-0.527329,-0.0876591,-0.11285727,-0.096415766,-0.2307685,-0.83412254,-22.706251,-20.775002,-17.550001
1763129322106,3.8350966,2.6333013,8.113463,-0.527329,-0.0876591,-0.11285727,-0.096415766,-0.2307685,-0.83412254,-22.706251,-20.775002,-17.550001
1763129322106,3.8350966,2.6333013,8.113463,-0.527329,-0.0876591,-0.11285727,-0.09973616,-0.22678638,-0.8358997,-22.706251,-20.775002,-17.550001
1763129322107,3.8350966,2.6333013,8.113463,-0.527329,-0.0876591,-0.11285727,-0.09973616,-0.22678638,-0.8358997,-20.8875,-20.175001,-17.00625
