timestamp,accX,accY,accZ,gyroX,gyroY,gyroZ,rotX,rotY,rotZ,magX,magY,magZ
1763129403080,-2.6464617,8.775079,4.026522,-0.15302163,0.34849834,-0.015882485,0.50596637,0.14884257,-0.048380338,12.468751,-7.05,-32.04375
1763129403082,-2.6464617,8.775079,4.026522,-0.15302163,0.34849834,-0.015882485,0.50790286,0.14577647,-0.051751025,12.468751,-7.05,-32.04375
1763129403082,-2.6464617,8.775079,4.026522,0.25030184,-0.39843655,-0.11560616,0.50790286,0.14577647,-0.051751025,12.468751,-7.05,-32.04375
1763129403085,-3.6574295,8.469396,2.2319052,0.25030184,-0.39843655,-0.11560616,0.50790286,0.14577647,-0.051751025,12.468751,-7.05,-32.04375
1763129403098,-3.6574295,8.469396,2.2319052,0.25030184,-0.39843655,-0.11560616,0.50790286,0.14577647,-0.051751025,8.6625,-8.7375,-32.71875
1763129403107,-3.6574295,8.469396,2.2319052,0.25030184,-0.39843655,-0.11560616,0.50770575,0.13954052,-0.056133002,8.6625,-8.7375,-32.71875
1763129403111,-3.6574295,8.469396,2.2319052,-0.022907428,-0.72524923,-0.021380268,0.50770575,0.13954052,-0.056133002,8.6625,-8.7375,-32.71875
1763129403111,-3.0227332,8.611171,2.437688,-0.022907428,-0.72524923,-0.021380268,0.50770575,0.13954052,-0.056133002,8.6625,-8.7375,-32.71875
1763129403117,-3.0227332,8.611171,2.437688,-0.022907428,-0.72524923,-0.021380268,0.50770575,0.13954052,-0.056133002,11.025001,-9.806251,-33.5625
1763129403124,-3.0227332,8.611171,2.437688,-0.022907428,-0.72524923,-0.021380268,0.50448453,0.13380882,-0.060219392,11.025001,-9.806251,-33.5625
1763129403124,-3.0227332,8.611171,2.437688,-0.34712392,-0.72204214,-0.07696896,0.50448453,0.13380882,-0.060219392,11.025001,-9.806251,-33.5625
1763129403125,-2.4311078,8.581859,3.9230328,-0.34712392,-0.72204214,-0.07696896,0.50448453,0.13380882,-0.060219392,11.025001,-9.806251,-33.5625
1763129403139,-2.4311078,8.581859,3.9230328,-0.34712392,-0.72204214,-0.07696896,0.50448453,0.13380882,-0.060219392,9.225,-8.2875,-32.662502
1763129403146,-2.4311078,8.581859,3.9230328,-0.4714349,-0.47769627,-0.16203189,0.50448453,0.13380882,-0.060219392,9.225,-8.2875,-32.662502
1763129403146,-2.5663023,8.129615,4.9417768,-0.4714349,-0.47769627,-0.16203189,0.50448453,0.13380882,-0.060219392,9.225,-8.2875,-32.662502
1763129403158,-2.5663023,8.129615,4.9417768,-0.4714349,-0.47769627,-0.16203189,0.49988335,0.13070749,-0.063337885,9.225,-8.2875,-32.662502
1763129403159,-2.5663023,8.129615,4.9417768,-0.4714349,-0.47769627,-0.16203189,0.49988335,0.13070749,-0.063337885,9.9375,-7.3125005,-31.500002
1763129403167,-2.5663023,8.129615,4.9417768,-0.39477137,-0.3591885,-0.14844014,0.49988335,0.13070749,-0.063337885,9.9375,-7.3125005,-31.500002
1763129403167,-2.865405,7.940582,4.983651,-0.39477137,-0.3591885,-0.14844014,0.49988335,0.13070749,-0.063337885,9.9375,-7.3125005,-31.500002
1763129403177,-2.865405,7.940582,4.983651,-0.39477137,-0.3591885,-0.14844014,0.49582982,0.1285197,-0.06589304,9.9375,-7.3125005,-31.500002
1763129403178,-2.865405,7.940582,4.983651,-0.39477137,-0.3591885,-0.14844014,0.49582982,0.1285197,-0.06589304,11.34375,-7.8187504,-34.29375
1763129403188,-2.865405,7.940582,4.983651,-0.19761476,-0.34865108,-0.083383046,0.49582982,0.1285197,-0.06589304,11.34375,-7.8187504,-34.29375
1763129403188,-3.0035906,8.206185,4.910072,-0.19761476,-0.34865108,-0.083383046,0.49582982,0.1285197,-0.06589304,11.34375,-7.8187504,-34.29375
1763129403198,-3.0035906,8.206185,4.910072,-0.19761476,-0.34865108,-0.083383046,0.49361584,0.12599228,-0.06816963,11.34375,-7.8187504,-34.29375
1763129403199,-3.0035906,8.206185,4.910072,-0.19761476,-0.34865108,-0.083383046,0.49361584,0.12599228,-0.06816963,9.150001,-7.5375004,-35.325
1763129403208,-3.0035906,8.206185,4.910072,-0.044898562,-0.37400195,-0.058490302,0.49361584,0.12599228,-0.06816963,9.150001,-7.5375004,-35.325
1763129403208,-2.8839495,8.275578,4.7712884,-0.044898562,-0.37400195,-0.058490302,0.49361584,0.12599228,-0.06816963,9.150001,-7.5375004,-35.325
1763129403218,-2.8839495,8.275578,4.7712884,-0.044898562,-0.37400195,-0.058490302,0.49284267,0.12297792,-0.07063839,9.150001,-7.5375004,-35.325
1763129403219,-2.8839495,8.275578,4.7712884,-0.044898562,-0.37400195,-0.058490302,0.49284267,0.12297792,-0.07063839,9.69375,-8.53125,-35.643753
1763129403232,-2.8839495,8.275578,4.7712884,0.004734202,-0.32391104,-0.07192933,0.49284267,0.12297792,-0.07063839,9.69375,-8.53125,-35.643753
1763129403233,-2.8725836,8.386245,4.667799,0.004734202,-0.32391104,-0.07192933,0.49284267,0.12297792,-0.07063839,9.69375,-8.53125,-35.643753
1763129403240,-2.8725836,8.386245,4.667799,0.004734202,-0.32391104,-0.07192933,0.49255735,0.120475255,-0.07293586,9.69375,-8.53125,-35.643753
1763129403240,-2.8725836,8.386245,4.667799,0.004734202,-0.32391104,-0.07192933,0.49255735,0.120475255,-0.07293586,10.9875,-7.2562504,-33.9375
1763129403251,-2.8725836,8.386245,4.667799,-0.028252495,-0.2689332,-0.099723674,0.49255735,0.120475255,-0.07293586,10.9875,-7.2562504,-33.9375
1763129403251,-2.7649066,8.376076,4.4632125,-0.028252495,-0.2689332,-0.099723674,0.49255735,0.120475255,-0.07293586,10.9875,-7.2562504,-33.9375
1763129403258,-2.7649066,8.376076,4.4632125,-0.028252495,-0.2689332,-0.099723674,0.49201667,0.11862268,-0.07517493,10.9875,-7.2562504,-33.9375
1763129403262,-2.7649066,8.376076,4.4632125,-0.028252495,-0.2689332,-0.099723674,0.49201667,0.11862268,-0.07517493,10.087501,-5.53125,-34.36875
1763129403273,-2.7649066,8.376076,4.4632125,-0.07345649,-0.29779658,-0.1075122,0.49201667,0.11862268,-0.07517493,10.087501,-5.53125,-34.36875
1763129403274,-2.681756,8.23789,4.45065,-0.07345649,-0.29779658,-0.1075122,0.49201667,0.11862268,-0.07517493,10.087501,-5.53125,-34.36875
1763129403277,-2.681756,8.23789,4.45065,-0.07345649,-0.29779658,-0.1075122,0.49201667,0.11862268,-0.07517493,9.09375,-8.83125,-34.8375
1763129403278,-2.681756,8.23789,4.45065,-0.07345649,-0.29779658,-0.1075122,0.49107316,0.116587184,-0.07754104,9.09375,-8.83125,-34.8375
1763129403292,-2.681756,8.23789,4.45065,-0.064904384,-0.3564396,-0.10384701,0.49107316,0.116587184,-0.07754104,9.09375,-8.83125,-34.8375
1763129403293,-2.7003005,8.087741,4.6504507,-0.064904384,-0.3564396,-0.10384701,0.49107316,0.116587184,-0.07754104,9.09375,-8.83125,-34.8375
1763129403298,-2.7003005,8.087741,4.6504507,-0.064904384,-0.3564396,-0.10384701,0.4901499,0.11399435,-0.08017267,9.09375,-8.83125,-34.8375
1763129403299,-2.7003005,8.087741,4.6504507,-0.064904384,-0.3564396,-0.10384701,0.4901499,0.11399435,-0.08017267,9.993751,-6.675,-33.018753
1763129403314,-2.7003005,8.087741,4.6504507,-0.034361143,-0.33353218,-0.08384119,0.4901499,0.11399435,-0.08017267,9.993751,-6.675,-33.018753
1763129403314,-2.9276185,8.099107,4.6002016,-0.034361143,-0.33353218,-0.08384119,0.4901499,0.11399435,-0.08017267,9.993751,-6.675,-33.018753
1763129403318,-2.9276185,8.099107,4.6002016,-0.034361143,-0.33353218,-0.08384119,0.48948815,0.11148884,-0.08254714,9.993751,-6.675,-33.018753
1763129403319,-2.9276185,8.099107,4.6002016,-0.034361143,-0.33353218,-0.08384119,0.48948815,0.11148884,-0.08254714,7.3875003,-8.71875,-32.643753
1763129403334,-2.9276185,8.099107,4.6002016,0.014355322,-0.42928523,-0.031154104,0.48948815,0.11148884,-0.08254714,7.3875003,-8.71875,-32.643753
1763129403335,-2.92044,8.085946,4.2478585,0.014355322,-0.42928523,-0.031154104,0.48948815,0.11148884,-0.08254714,7.3875003,-8.71875,-32.643753
1763129403338,-2.92044,8.085946,4.2478585,0.014355322,-0.42928523,-0.031154104,0.48925933,0.107810006,-0.08511262,7.3875003,-8.71875,-32.643753
1763129403338,-2.92044,8.085946,4.2478585,0.014355322,-0.42928523,-0.031154104,0.48925933,0.107810006,-0.08511262,8.75625,-6.80625,-35.025
1763129403357,-2.92044,8.085946,4.2478585,0.014355322,-0.42928523,-0.031154104,0.4883143,0.09525822,-0.09193729,8.75625,-6.80625,-35.025
1763129403359,-2.92044,8.085946,4.2478585,0.014355322,-0.42928523,-0.031154104,0.4883143,0.09525822,-0.09193729,3.4875002,-7.8187504,-29.493752
1763129403360,-2.92044,8.085946,4.2478585,0.014355322,-1.3642138,0.043371398,0.4883143,0.09525822,-0.09193729,3.4875002,-7.8187504,-29.493752
1763129403361,-2.6895328,7.493124,0.99661064,0.014355322,-1.3642138,0.043371398,0.4883143,0.09525822,-0.09193729,3.4875002,-7.8187504,-29.493752
1763129403378,-3.3212378,8.733803,1.6570296,0.014355322,-1.3642138,0.043371398,0.4883143,0.09525822,-0.09193729,3.4875002,-7.8187504,-29.493752
1763129403380,-3.3212378,8.733803,1.6570296,0.014355322,-1.3642138,0.043371398,0.4823706,0.071268,-0.105655015,3.4875002,-7.8187504,-29.493752
1763129403381,-3.3212378,8.733803,1.6570296,0.014355322,-1.3642138,0.043371398,0.4823706,0.071268,-0.105655015,8.175,-7.1062503,-35.568752
1763129403382,-3.3212378,8.733803,1.6570296,-0.42363474,-2.7160575,-0.010384701,0.4823706,0.071268,-0.105655015,8.175,-7.1062503,-35.568752
1763129403398,-3.3212378,8.733803,1.6570296,-0.42363474,-2.7160575,-0.010384701,0.47014758,0.0486176,-0.117768675,8.175,-7.1062503,-35.568752
1763129403400,-3.3212378,8.733803,1.6570296,-1.097724,-2.6117523,0.064140804,0.47014758,0.0486176,-0.117768675,8.175,-7.1062503,-35.568752
1763129403401,-2.4921248,8.169097,3.6981075,-1.097724,-2.6117523,0.064140804,0.47014758,0.0486176,-0.117768675,8.175,-7.1062503,-35.568752
1763129403402,-2.4921248,8.169097,3.6981075,-1.097724,-2.6117523,0.064140804,0.47014758,0.0486176,-0.117768675,6.525,-6.3750005,-35.193752
1763129403417,-2.4921248,8.169097,3.6981075,-1.097724,-2.6117523,0.064140804,0.47014758,0.0486176,-0.117768675,4.6125,-7.93125,-35.643753
1763129403419,-2.4921248,8.169097,3.6981075,-1.4976877,-1.6131412,0.10598504,0.47014758,0.0486176,-0.117768675,4.6125,-7.93125,-35.643753
1763129403420,-2.4921248,8.169097,3.6981075,-1.4976877,-1.6131412,0.10598504,0.45479155,0.03527732,-0.12418866,4.6125,-7.93125,-35.643753
1763129403420,-1.2191432,7.268199,6.4259253,-1.4976877,-1.6131412,0.10598504,0.45479155,0.03527732,-0.12418866,4.6125,-7.93125,-35.643753
1763129403437,-1.2191432,7.268199,6.4259253,-1.4976877,-1.6131412,0.10598504,0.45479155,0.03527732,-0.12418866,2.8500001,-8.83125,-35.625
1763129403439,-0.49950173,6.990033,8.103892,-1.4976877,-1.6131412,0.10598504,0.45479155,0.03527732,-0.12418866,2.8500001,-8.83125,-35.625
1763129403441,-0.49950173,6.990033,8.103892,-1.2047781,-1.0752747,0.045814857,0.45479155,0.03527732,-0.12418866,2.8500001,-8.83125,-35.625
1763129403442,-0.49950173,6.990033,8.103892,-1.2047781,-1.0752747,0.045814857,0.44205654,0.026658569,-0.12831576,2.8500001,-8.83125,-35.625
1763129403458,-0.49950173,6.990033,8.103892,-1.2047781,-1.0752747,0.045814857,0.44205654,0.026658569,-0.12831576,1.5562501,-6.4125004,-35.8875
1763129403461,-0.49950173,6.990033,8.103892,-1.2047781,-1.0752747,0.045814857,0.43688992,0.021175783,-0.13123147,1.5562501,-6.4125004,-35.8875
1763129403463,-0.73340017,6.971489,8.46461,-1.2047781,-1.0752747,0.045814857,0.43688992,0.021175783,-0.13123147,1.5562501,-6.4125004,-35.8875
1763129403464,-0.73340017,6.971489,8.46461,-0.4074468,-0.6496547,-0.031306818,0.43688992,0.021175783,-0.13123147,1.5562501,-6.4125004,-35.8875
1763129403478,-0.73340017,6.971489,8.46461,-0.4074468,-0.6496547,-0.031306818,0.43688992,0.021175783,-0.13123147,2.4562502,-5.7000003,-35.0625
1763129403481,-0.73340017,6.971489,8.46461,0.3113883,-0.33964083,-0.017104214,0.43688992,0.021175783,-0.13123147,2.4562502,-5.7000003,-35.0625
1763129403482,-0.73340017,6.971489,8.46461,0.3113883,-0.33964083,-0.017104214,0.43877465,0.017559856,-0.13285308,2.4562502,-5.7000003,-35.0625
1763129403482,-1.3387842,7.0606213,7.64447,0.3113883,-0.33964083,-0.017104214,0.43877465,0.017559856,-0.13285308,2.4562502,-5.7000003,-35.0625
1763129403499,-1.3387842,7.0606213,7.64447,0.3113883,-0.33964083,-0.017104214,0.43877465,0.017559856,-0.13285308,-0.09375,-9.168751,-32.15625
1763129403503,-1.3387842,7.0606213,7.64447,0.52564913,-0.01847866,0.0632245,0.43877465,0.017559856,-0.13285308,-0.09375,-9.168751,-32.15625
1763129403503,-1.3387842,7.0606213,7.64447,0.52564913,-0.01847866,0.0632245,0.4432616,0.016348466,-0.13247389,-0.09375,-9.168751,-32.15625
1763129403504,-1.6594225,7.556534,6.033502,0.52564913,-0.01847866,0.0632245,0.4432616,0.016348466,-0.13247389,-0.09375,-9.168751,-32.15625
1763129403517,-1.6594225,7.556534,6.033502,0.52564913,-0.01847866,0.0632245,0.4432616,0.016348466,-0.13247389,-1.125,-8.925,-33.9
1763129403523,-1.6594225,7.556534,6.033502,0.20983206,0.07971785,0.1348484,0.4432616,0.016348466,-0.13247389,-1.125,-8.925,-33.9
1763129403523,-1.5954145,8.055437,4.7216372,0.20983206,0.07971785,0.1348484,0.4432616,0.016348466,-0.13247389,-1.125,-8.925,-33.9
1763129403524,-1.5954145,8.055437,4.7216372,0.20983206,0.07971785,0.1348484,0.44530925,0.016201263,-0.13096598,-1.125,-8.925,-33.9
1763129403538,-1.5954145,8.055437,4.7216372,0.20983206,0.07971785,0.1348484,0.44530925,0.016201263,-0.13096598,-0.88125,-9.01875,-32.4375
1763129403545,-1.5954145,8.055437,4.7216372,-0.318566,0.021074835,0.16829325,0.44530925,0.016201263,-0.13096598,-0.88125,-9.01875,-32.4375
1763129403546,-1.5954145,8.055437,4.7216372,-0.318566,0.021074835,0.16829325,0.44268566,0.016102685,-0.12920421,-0.88125,-9.01875,-32.4375
1763129403547,-1.4009976,8.376076,4.3483567,-0.318566,0.021074835,0.16829325,0.44268566,0.016102685,-0.12920421,-0.88125,-9.01875,-32.4375
1763129403558,-1.4009976,8.376076,4.3483567,-0.318566,0.021074835,0.16829325,0.44268566,0.016102685,-0.12920421,1.5187501,-7.70625,-36.46875
1763129403565,-1.4009976,8.376076,4.3483567,-0.7192933,-0.13897173,0.12553272,0.44268566,0.016102685,-0.12920421,1.5187501,-7.70625,-36.46875
1763129403566,-1.2574283,8.258229,4.9663033,-0.7192933,-0.13897173,0.12553272,0.44268566,0.016102685,-0.12920421,1.5187501,-7.70625,-36.46875
1763129403579,-1.2574283,8.258229,4.9663033,-0.7192933,-0.13897173,0.12553272,0.43622938,0.015290484,-0.12830606,1.5187501,-7.70625,-36.46875
1763129403580,-1.2574283,8.258229,4.9663033,-0.7192933,-0.13897173,0.12553272,0.43622938,0.015290484,-0.12830606,1.3125,-6.6000004,-34.237503
1763129403587,-1.2574283,8.258229,4.9663033,-0.79717857,-0.29779658,0.05497783,0.43622938,0.015290484,-0.12830606,1.3125,-6.6000004,-34.237503
1763129403588,-1.1353943,7.9573317,6.1513486,-0.79717857,-0.29779658,0.05497783,0.43622938,0.015290484,-0.12830606,1.3125,-6.6000004,-34.237503
1763129403599,-1.1353943,7.9573317,6.1513486,-0.79717857,-0.29779658,0.05497783,0.42869952,0.013355608,-0.12884553,1.3125,-6.6000004,-34.237503
1763129403600,-1.1353943,7.9573317,6.1513486,-0.79717857,-0.29779658,0.05497783,0.42869952,0.013355608,-0.12884553,2.25,-5.26875,-35.53125
1763129403607,-1.1353943,7.9573317,6.1513486,-0.6050616,-0.3026835,-7.6358096E-4,0.42869952,0.013355608,-0.12884553,2.25,-5.26875,-35.53125
1763129403608,-1.0396814,7.643872,7.036095,-0.6050616,-0.3026835,-7.6358096E-4,0.42869952,0.013355608,-0.12884553,2.25,-5.26875,-35.53125
1763129403617,-1.0396814,7.643872,7.036095,-0.6050616,-0.3026835,-7.6358096E-4,0.42270413,0.011350787,-0.12995185,2.25,-5.26875,-35.53125
1763129403618,-1.0396814,7.643872,7.036095,-0.6050616,-0.3026835,-7.6358096E-4,0.42270413,0.011350787,-0.12995185,1.4250001,-5.625,-35.381252
1763129403629,-1.0396814,7.643872,7.036095,-0.32467464,-0.17424917,-0.03848448,0.42270413,0.011350787,-0.12995185,1.4250001,-5.625,-35.381252
1763129403630,-1.0767702,7.4865437,7.164111,-0.32467464,-0.17424917,-0.03848448,0.42270413,0.011350787,-0.12995185,1.4250001,-5.625,-35.381252
1763129403639,-1.0767702,7.4865437,7.164111,-0.32467464,-0.17424917,-0.03848448,0.42270413,0.011350787,-0.12995185,-0.1875,-5.1937504,-34.612503
1763129403640,-1.0767702,7.4865437,7.164111,-0.32467464,-0.17424917,-0.03848448,0.41931993,0.010298252,-0.13094316,-0.1875,-5.1937504,-34.612503
1763129403650,-1.0767702,7.4865437,7.164111,-0.11423171,-0.05574141,-0.056199558,0.41931993,0.010298252,-0.13094316,-0.1875,-5.1937504,-34.612503
1763129403651,-1.247857,7.4237323,6.7202425,-0.11423171,-0.05574141,-0.056199558,0.41931993,0.010298252,-0.13094316,-0.1875,-5.1937504,-34.612503
1763129403659,-1.247857,7.4237323,6.7202425,-0.11423171,-0.05574141,-0.056199558,0.41803843,0.010145531,-0.13165365,-0.1875,-5.1937504,-34.612503
1763129403660,-1.247857,7.4237323,6.7202425,-0.11423171,-0.05574141,-0.056199558,0.41803843,0.010145531,-0.13165365,0.01875,-4.8375,-35.7
1763129403671,-1.247857,7.4237323,6.7202425,-0.032833982,0.029168794,-0.059253883,0.41803843,0.010145531,-0.13165365,0.01875,-4.8375,-35.7
1763129403672,-1.2951152,7.440482,6.0568323,-0.032833982,0.029168794,-0.059253883,0.41803843,0.010145531,-0.13165365,0.01875,-4.8375,-35.7
1763129403678,-1.2951152,7.440482,6.0568323,-0.032833982,0.029168794,-0.059253883,0.41771528,0.010716862,-0.13207635,0.01875,-4.8375,-35.7
1763129403679,-1.2951152,7.440482,6.0568323,-0.032833982,0.029168794,-0.059253883,0.41771528,0.010716862,-0.13207635,-0.95625,-6.80625,-34.85625
1763129403691,-1.2951152,7.440482,6.0568323,-0.083688475,-0.0074830935,-0.06780599,0.41771528,0.010716862,-0.13207635,-0.95625,-6.80625,-34.85625
1763129403692,-1.4584254,7.4386873,5.6584272,-0.083688475,-0.0074830935,-0.06780599,0.41771528,0.010716862,-0.13207635,-0.95625,-6.80625,-34.85625
1763129403698,-1.4584254,7.4386873,5.6584272,-0.083688475,-0.0074830935,-0.06780599,0.41698456,0.01106533,-0.13272016,-0.95625,-6.80625,-34.85625
1763129403699,-1.4584254,7.4386873,5.6584272,-0.083688475,-0.0074830935,-0.06780599,0.41698456,0.01106533,-0.13272016,0.0375,-5.1375003,-34.10625
1763129403713,-1.4584254,7.4386873,5.6584272,-0.20295982,-0.08842268,-0.074830934,0.41698456,0.01106533,-0.13272016,0.0375,-5.1375003,-34.10625
1763129403714,-1.6091732,7.323832,5.643472,-0.20295982,-0.08842268,-0.074830934,0.41698456,0.01106533,-0.13272016,0.0375,-5.1375003,-34.10625
1763129403718,-1.6091732,7.323832,5.643472,-0.20295982,-0.08842268,-0.074830934,0.41509655,0.010871666,-0.13381271,0.0375,-5.1375003,-34.10625
1763129403719,-1.6091732,7.323832,5.643472,-0.20295982,-0.08842268,-0.074830934,0.41509655,0.010871666,-0.13381271,0.16875,-5.7562504,-35.568752
1763129403733,-1.6091732,7.323832,5.643472,-0.30802858,-0.15164718,-0.049480047,0.41509655,0.010871666,-0.13381271,0.16875,-5.7562504,-35.568752
1763129403735,-1.6444674,7.1862445,5.8420763,-0.30802858,-0.15164718,-0.049480047,0.41509655,0.010871666,-0.13381271,0.16875,-5.7562504,-35.568752
1763129403739,-1.6444674,7.1862445,5.8420763,-0.30802858,-0.15164718,-0.049480047,0.4121299,0.010135779,-0.13499261,0.16875,-5.7562504,-35.568752
1763129403740,-1.6444674,7.1862445,5.8420763,-0.30802858,-0.15164718,-0.049480047,0.4121299,0.010135779,-0.13499261,0.1875,-5.90625,-35.362503
1763129403756,-1.6444674,7.1862445,5.8420763,-0.35766134,-0.20280711,-0.018631376,0.4121299,0.010135779,-0.13499261,0.1875,-5.90625,-35.362503
1763129403758,-1.5200406,7.1449685,6.3009005,-0.35766134,-0.20280711,-0.018631376,0.4121299,0.010135779,-0.13499261,0.1875,-5.90625,-35.362503
1763129403760,-1.5200406,7.1449685,6.3009005,-0.35766134,-0.20280711,-0.018631376,0.40858105,0.008858895,-0.13613033,0.1875,-5.90625,-35.362503
1763129403761,-1.5200406,7.1449685,6.3009005,-0.35766134,-0.20280711,-0.018631376,0.40858105,0.008858895,-0.13613033,-0.41250002,-5.4,-35.53125
1763129403775,-1.5200406,7.1449685,6.3009005,-0.34758207,-0.090560704,-0.0012217296,0.40858105,0.008858895,-0.13613033,-0.41250002,-5.4,-35.53125
1763129403777,-1.3716856,7.042675,6.88774,-0.34758207,-0.090560704,-0.0012217296,0.40858105,0.008858895,-0.13613033,-0.41250002,-5.4,-35.53125
1763129403778,-1.3716856,7.042675,6.88774,-0.34758207,-0.090560704,-0.0012217296,0.40520993,0.008538103,-0.13659467,-0.41250002,-5.4,-35.53125
1763129403779,-1.3716856,7.042675,6.88774,-0.34758207,-0.090560704,-0.0012217296,0.40520993,0.008538103,-0.13659467,-0.69375,-5.9625,-35.775
1763129403798,-1.3716856,7.042675,6.88774,-0.34758207,-0.090560704,-0.0012217296,0.4026441,0.008945127,-0.13663761,-0.69375,-5.9625,-35.775
1763129403799,-1.3716856,7.042675,6.88774,-0.26480988,0.0015271619,-6.108648E-4,0.4026441,0.008945127,-0.13663761,-0.69375,-5.9625,-35.775
1763129403800,-1.4321043,7.100103,6.9009004,-0.26480988,0.0015271619,-6.108648E-4,0.4026441,0.008945127,-0.13663761,-0.69375,-5.9625,-35.775
1763129403801,-1.4321043,7.100103,6.9009004,-0.26480988,0.0015271619,-6.108648E-4,0.4026441,0.008945127,-0.13663761,0.69375,-3.6937501,-34.143753
1763129403819,-1.4321043,7.100103,6.9009004,-0.14187334,0.010231985,0.0013744457,0.4026441,0.008945127,-0.13663761,0.69375,-3.6937501,-34.143753
1763129403820,-1.4321043,7.100103,6.9009004,-0.14187334,0.010231985,0.0013744457,0.40127173,0.009257442,-0.13664876,0.69375,-3.6937501,-34.143753
1763129403821,-1.4321043,7.100103,6.9009004,-0.14187334,0.010231985,0.0013744457,0.40127173,0.009257442,-0.13664876,1.4250001,-2.5687501,-35.1375
1763129403822,-1.5170496,7.18445,6.7639112,-0.14187334,0.010231985,0.0013744457,0.40127173,0.009257442,-0.13664876,1.4250001,-2.5687501,-35.1375
1763129403839,-1.5170496,7.18445,6.7639112,-0.14187334,0.010231985,0.0013744457,0.40067697,0.009348119,-0.13649121,1.4250001,-2.5687501,-35.1375
1763129403841,-1.5170496,7.18445,6.7639112,-0.064140804,0.007177661,0.023212861,0.40067697,0.009348119,-0.13649121,1.4250001,-2.5687501,-35.1375
1763129403842,-1.4099708,7.172486,6.4797635,-0.064140804,0.007177661,0.023212861,0.40067697,0.009348119,-0.13649121,1.4250001,-2.5687501,-35.1375
1763129403843,-1.4099708,7.172486,6.4797635,-0.064140804,0.007177661,0.023212861,0.40067697,0.009348119,-0.13649121,1.4250001,-2.5687501,-35.1375
1763129403858,-1.4099708,7.172486,6.4797635,-0.064140804,0.007177661,0.023212861,0.40067697,0.009348119,-0.13649121,-0.22500001,-5.0437503,-34.518753
1763129403861,-1.4099708,7.172486,6.4797635,-0.05589413,-0.0029016077,0.029474225,0.40067697,0.009348119,-0.13649121,-0.22500001,-5.0437503,-34.518753
1763129403862,-1.4099708,7.172486,6.4797635,-0.05589413,-0.0029016077,0.029474225,0.40019417,0.009298162,-0.13626713,-0.22500001,-5.0437503,-34.518753
1763129403863,-1.2329018,7.259824,6.419345,-0.05589413,-0.0029016077,0.029474225,0.40019417,0.009298162,-0.13626713,-0.22500001,-5.0437503,-34.518753
1763129403877,-1.2329018,7.259824,6.419345,-0.05589413,-0.0029016077,0.029474225,0.40019417,0.009298162,-0.13626713,-0.20625001,-3.45,-36.28125
1763129403880,-1.2329018,7.259824,6.419345,-0.05589413,-0.0029016077,0.029474225,0.39957505,0.0096522,-0.13614278,-0.20625001,-3.45,-36.28125
1763129403881,-1.1659029,7.2616186,6.302695,-0.05589413,-0.0029016077,0.029474225,0.39957505,0.0096522,-0.13614278,-0.20625001,-3.45,-36.28125
1763129403882,-1.1659029,7.2616186,6.302695,-0.076358095,0.024740024,-0.0018325944,0.39957505,0.0096522,-0.13614278,-0.20625001,-3.45,-36.28125
1763129403899,-1.1659029,7.2616186,6.302695,-0.076358095,0.024740024,-0.0018325944,0.39957505,0.0096522,-0.13614278,-0.09375,-4.0687504,-36.693752
1763129403902,-1.1659029,7.2616186,6.302695,-0.110108376,0.009010255,-0.03375028,0.39957505,0.0096522,-0.13614278,-0.09375,-4.0687504,-36.693752
1763129403904,-1.250848,7.227521,6.196214,-0.110108376,0.009010255,-0.03375028,0.39957505,0.0096522,-0.13614278,-0.09375,-4.0687504,-36.693752
1763129403905,-1.250848,7.227521,6.196214,-0.110108376,0.009010255,-0.03375028,0.3986325,0.010033667,-0.1363512,-0.09375,-4.0687504,-36.693752
1763129403918,-1.250848,7.227521,6.196214,-0.110108376,0.009010255,-0.03375028,0.3986325,0.010033667,-0.1363512,-1.0125,-5.55,-36.412502
1763129403922,-1.250848,7.227521,6.196214,-0.110108376,0.009010255,-0.03375028,0.39748037,0.010064382,-0.13659671,-1.0125,-5.55,-36.412502
1763129403923,-1.250848,7.227521,6.196214,-0.1291979,-0.02565632,-0.019547673,0.39748037,0.010064382,-0.13659671,-1.0125,-5.55,-36.412502
1763129403924,-1.3369896,7.198807,6.328418,-0.1291979,-0.02565632,-0.019547673,0.39748037,0.010064382,-0.13659671,-1.0125,-5.55,-36.412502
1763129403940,-1.3369896,7.198807,6.328418,-0.1291979,-0.02565632,-0.019547673,0.39748037,0.010064382,-0.13659671,1.4250001,-2.5687501,-35.1375
1763129403944,-1.3369896,7.198807,6.328418,-0.11988221,-0.06368265,-0.00641408,0.39748037,0.010064382,-0.13659671,1.4250001,-2.5687501,-35.1375
1763129403945,-1.3369896,7.198807,6.328418,-0.11988221,-0.06368265,-0.00641408,0.39634338,0.009672405,-0.13691658,1.4250001,-2.5687501,-35.1375
1763129403946,-1.2909278,7.207182,6.4474607,-0.11988221,-0.06368265,-0.00641408,0.39634338,0.009672405,-0.13691658,1.4250001,-2.5687501,-35.1375
1763129403957,-1.2909278,7.207182,6.4474607,-0.11988221,-0.06368265,-0.00641408,0.39634338,0.009672405,-0.13691658,-0.43125,-3.6562502,-35.850002
1763129403964,-1.2909278,7.207182,6.4474607,-0.11988221,-0.06368265,-0.00641408,0.3950985,0.009413088,-0.13746247,-0.43125,-3.6562502,-35.850002
1763129403966,-1.2909278,7.207182,6.4474607,-0.12965605,-0.062002774,-0.03252855,0.3950985,0.009413088,-0.13746247,-0.43125,-3.6562502,-35.850002
1763129403967,-1.1916257,7.2006016,6.521638,-0.12965605,-0.062002774,-0.03252855,0.3950985,0.009413088,-0.13746247,-0.43125,-3.6562502,-35.850002
1763129403978,-1.1916257,7.2006016,6.521638,-0.12965605,-0.062002774,-0.03252855,0.3950985,0.009413088,-0.13746247,-2.0812502,-5.3250003,-35.8875
1763129403986,-1.1916257,7.2006016,6.521638,-0.1621846,-0.017867794,-0.056963142,0.3950985,0.009413088,-0.13746247,-2.0812502,-5.3250003,-35.8875
1763129403987,-1.3543376,7.0414786,6.599405,-0.1621846,-0.017867794,-0.056963142,0.3950985,0.009413088,-0.13746247,-2.0812502,-5.3250003,-35.8875
1763129403998,-1.3543376,7.0414786,6.599405,-0.1621846,-0.017867794,-0.056963142,0.39359495,0.0097289225,-0.13797385,-2.0812502,-5.3250003,-35.8875
1763129403999,-1.3543376,7.0414786,6.599405,-0.1621846,-0.017867794,-0.056963142,0.39359495,0.0097289225,-0.13797385,-1.2375001,-4.96875,-35.4375
1763129404006,-1.3543376,7.0414786,6.599405,-0.15607595,-0.021532983,-0.043065965,0.39359495,0.0097289225,-0.13797385,-1.2375001,-4.96875,-35.4375
1763129404006,-1.4967105,6.9882383,6.5485573,-0.15607595,-0.021532983,-0.043065965,0.39359495,0.0097289225,-0.13797385,-1.2375001,-4.96875,-35.4375
1763129404018,-1.4967105,6.9882383,6.5485573,-0.15607595,-0.021532983,-0.043065965,0.39211756,0.0099556325,-0.13845512,-1.2375001,-4.96875,-35.4375
1763129404019,-1.4967105,6.9882383,6.5485573,-0.15607595,-0.021532983,-0.043065965,0.39211756,0.0099556325,-0.13845512,-0.22500001,-4.89375,-35.756252
1763129404027,-1.4967105,6.9882383,6.5485573,-0.12935062,-0.058337588,-0.016493348,0.39211756,0.0099556325,-0.13845512,-0.22500001,-4.89375,-35.756252
1763129404028,-1.4129617,7.0025954,6.7351975,-0.12935062,-0.058337588,-0.016493348,0.39211756,0.0099556325,-0.13845512,-0.22500001,-4.89375,-35.756252
1763129404037,-1.4129617,7.0025954,6.7351975,-0.12935062,-0.058337588,-0.016493348,0.3908525,0.009700712,-0.13889016,-0.22500001,-4.89375,-35.756252
1763129404039,-1.4129617,7.0025954,6.7351975,-0.12935062,-0.058337588,-0.016493348,0.3908525,0.009700712,-0.13889016,0.16875,-3.35625,-36.65625
1763129404048,-1.4129617,7.0025954,6.7351975,-0.11270455,-0.028863361,-0.024740024,0.3908525,0.009700712,-0.13889016,0.16875,-3.35625,-36.65625
1763129404049,-1.2269198,7.0893354,6.7495546,-0.11270455,-0.028863361,-0.024740024,0.3908525,0.009700712,-0.13889016,0.16875,-3.35625,-36.65625
1763129404058,-1.2269198,7.0893354,6.7495546,-0.11270455,-0.028863361,-0.024740024,0.38976172,0.009725643,-0.13925648,0.16875,-3.35625,-36.65625
1763129404059,-1.2269198,7.0893354,6.7495546,-0.11270455,-0.028863361,-0.024740024,0.38976172,0.009725643,-0.13925648,-3.5625002,-5.6625004,-34.725002
1763129404070,-1.2269198,7.0893354,6.7495546,-0.116675176,4.581486E-4,-0.06658426,0.38976172,0.009725643,-0.13925648,-3.5625002,-5.6625004,-34.725002
1763129404071,-1.4279169,7.001399,6.6538415,-0.116675176,4.581486E-4,-0.06658426,0.38976172,0.009725643,-0.13925648,-3.5625002,-5.6625004,-34.725002
1763129404078,-1.4279169,7.001399,6.6538415,-0.116675176,4.581486E-4,-0.06658426,0.38868377,0.010181851,-0.13982372,-3.5625002,-5.6625004,-34.725002
1763129404079,-1.4279169,7.001399,6.6538415,-0.116675176,4.581486E-4,-0.06658426,0.38868377,0.010181851,-0.13982372,-1.21875,-5.11875,-35.23125
1763129404090,-1.4853446,6.9595246,6.498906,-0.116675176,4.581486E-4,-0.06658426,0.38868377,0.010181851,-0.13982372,-1.21875,-5.11875,-35.23125
1763129404091,-1.4853446,6.9595246,6.498906,-0.1301142,0.012522728,-0.04886918,0.38868377,0.010181851,-0.13982372,-1.21875,-5.11875,-35.23125
1763129404098,-1.4853446,6.9595246,6.498906,-0.1301142,0.012522728,-0.04886918,0.3875092,0.010722183,-0.14025195,-1.21875,-5.11875,-35.23125
1763129404099,-1.4853446,6.9595246,6.498906,-0.1301142,0.012522728,-0.04886918,0.3875092,0.010722183,-0.14025195,-0.0375,-2.9250002,-36.225002
1763129404111,-1.4853446,6.9595246,6.498906,-0.14355323,-0.038789913,-0.018173227,0.3875092,0.010722183,-0.14025195,-0.0375,-2.9250002,-36.225002
1763129404113,-1.3082758,7.0002027,6.6101727,-0.14355323,-0.038789913,-0.018173227,0.3875092,0.010722183,-0.14025195,-0.0375,-2.9250002,-36.225002
1763129404117,-1.3082758,7.0002027,6.6101727,-0.14355323,-0.038789913,-0.018173227,0.3875092,0.010722183,-0.14025195,-1.21875,-4.96875,-36.6375
1763129404133,-1.3082758,7.0002027,6.6101727,-0.13897173,-0.031917684,-0.032833982,0.3875092,0.010722183,-0.14025195,-1.21875,-4.96875,-36.6375
1763129404134,-1.1210374,7.068398,6.658627,-0.13897173,-0.031917684,-0.032833982,0.3875092,0.010722183,-0.14025195,-1.21875,-4.96875,-36.6375
1763129404138,-1.1210374,7.068398,6.658627,-0.13897173,-0.031917684,-0.032833982,0.3866361,0.010870223,-0.14093587,-1.21875,-4.96875,-36.6375
1763129404139,-1.1210374,7.068398,6.658627,-0.13897173,-0.031917684,-0.032833982,0.38573188,0.01098747,-0.14124751,-1.21875,-4.96875,-36.6375
1763129404141,-1.1210374,7.068398,6.658627,-0.13897173,-0.031917684,-0.032833982,0.38573188,0.01098747,-0.14124751,-1.3125,-3.6937501,-36.24375
1763129404153,-1.1210374,7.068398,6.658627,-0.11942407,-0.037873615,-0.08429934,0.38573188,0.01098747,-0.14124751,-1.3125,-3.6937501,-36.24375
1763129404154,-1.2843475,6.951748,6.6107707,-0.11942407,-0.037873615,-0.08429934,0.38573188,0.01098747,-0.14124751,-1.3125,-3.6937501,-36.24375
1763129404159,-1.2843475,6.951748,6.6107707,-0.11942407,-0.037873615,-0.08429934,0.38500986,0.011067021,-0.14155313,-1.3125,-3.6937501,-36.24375
1763129404160,-1.2843475,6.951748,6.6107707,-0.11942407,-0.037873615,-0.08429934,0.38500986,0.011067021,-0.14155313,0.46875003,-2.15625,-35.081253
1763129404174,-1.2843475,6.951748,6.6107707,-0.12064579,-0.033444848,-0.081397735,0.38500986,0.011067021,-0.14155313,0.46875003,-2.15625,-35.081253
1763129404176,-1.4961123,6.8039913,6.6598234,-0.12064579,-0.033444848,-0.081397735,0.38500986,0.011067021,-0.14155313,0.46875003,-2.15625,-35.081253
1763129404180,-1.4961123,6.8039913,6.6598234,-0.12064579,-0.033444848,-0.081397735,0.3842625,0.0113007985,-0.14230071,0.46875003,-2.15625,-35.081253
1763129404181,-1.4961123,6.8039913,6.6598234,-0.12064579,-0.033444848,-0.081397735,0.3842625,0.0113007985,-0.14230071,-0.73125005,-4.05,-36.75
1763129404195,-1.4961123,6.8039913,6.6598234,-0.1395826,-0.0097738365,-0.042607818,0.3842625,0.0113007985,-0.14230071,-0.73125005,-4.05,-36.75
1763129404197,-1.4991034,6.7561345,6.647261,-0.1395826,-0.0097738365,-0.042607818,0.3842625,0.0113007985,-0.14230071,-0.73125005,-4.05,-36.75
1763129404199,-1.4991034,6.7561345,6.647261,-0.1395826,-0.0097738365,-0.042607818,0.38322425,0.0118024405,-0.14317106,-0.73125005,-4.05,-36.75
1763129404200,-1.4991034,6.7561345,6.647261,-0.1395826,-0.0097738365,-0.042607818,0.38322425,0.0118024405,-0.14317106,-1.8937501,-3.99375,-36.487503
1763129404216,-1.4991034,6.7561345,6.647261,-0.13225223,-0.037110034,-0.014202606,0.38322425,0.0118024405,-0.14317106,-1.8937501,-3.99375,-36.487503
1763129404218,-1.3848461,6.8422766,6.835098,-0.13225223,-0.037110034,-0.014202606,0.38322425,0.0118024405,-0.14317106,-1.8937501,-3.99375,-36.487503
1763129404219,-1.3848461,6.8422766,6.835098,-0.13225223,-0.037110034,-0.014202606,0.38221323,0.011921207,-0.1438916,-1.8937501,-3.99375,-36.487503
1763129404221,-1.3848461,6.8422766,6.835098,-0.13225223,-0.037110034,-0.014202606,0.38221323,0.011921207,-0.1438916,-2.15625,-3.3937502,-34.612503
1763129404238,-1.3848461,6.8422766,6.835098,-0.13225223,-0.037110034,-0.014202606,0.3815795,0.012089768,-0.14426266,-2.15625,-3.3937502,-34.612503
1763129404239,-1.4129617,6.774679,6.9565334,-0.13225223,-0.037110034,-0.014202606,0.3815795,0.012089768,-0.14426266,-2.15625,-3.3937502,-34.612503
1763129404240,-1.4129617,6.774679,6.9565334,-0.084452055,-0.0129808765,-0.018936807,0.3815795,0.012089768,-0.14426266,-2.15625,-3.3937502,-34.612503
1763129404242,-1.4129617,6.774679,6.9565334,-0.084452055,-0.0129808765,-0.018936807,0.3815795,0.012089768,-0.14426266,-1.5375,-3.9,-35.34375
1763129404259,-1.4129617,6.774679,6.9565334,-0.04978548,-7.6358096E-4,-0.014508039,0.3815795,0.012089768,-0.14426266,-1.5375,-3.9,-35.34375
1763129404264,-1.4129617,6.774679,6.9565334,-0.04978548,-7.6358096E-4,-0.014508039,0.38110155,0.012333434,-0.14462729,-1.5375,-3.9,-35.34375
1763129404266,-1.4129617,6.774679,6.9565334,-0.04978548,-7.6358096E-4,-0.014508039,0.38110155,0.012333434,-0.14462729,-0.13125001,-1.6500001,-34.78125
1763129404267,-1.4679967,6.7848487,6.9009004,-0.04978548,-7.6358096E-4,-0.014508039,0.38110155,0.012333434,-0.14462729,-0.13125001,-1.6500001,-34.78125
1763129404277,-1.4679967,6.7848487,6.9009004,-0.04978548,-7.6358096E-4,-0.014508039,0.38110155,0.012333434,-0.14462729,-1.5187501,-3.2625,-35.8125
1763129404281,-1.4679967,6.7848487,6.9009004,-0.031459536,7.6358096E-4,-0.0108428495,0.38110155,0.012333434,-0.14462729,-1.5187501,-3.2625,-35.8125
1763129404282,-1.4679967,6.7848487,6.9009004,-0.031459536,7.6358096E-4,-0.0108428495,0.3808956,0.012581923,-0.14507884,-1.5187501,-3.2625,-35.8125
1763129404283,-1.3507484,6.8656063,6.8925257,-0.031459536,7.6358096E-4,-0.0108428495,0.3808956,0.012581923,-0.14507884,-1.5187501,-3.2625,-35.8125
1763129404297,-1.3507484,6.8656063,6.8925257,-0.031459536,7.6358096E-4,-0.0108428495,0.3808956,0.012581923,-0.14507884,-1.95,-3.6937501,-36.581253
1763129404300,-1.3507484,6.8656063,6.8925257,-0.031459536,7.6358096E-4,-0.0108428495,0.38088515,0.012805718,-0.14521131,-1.95,-3.6937501,-36.581253
1763129404301,-1.3507484,6.8656063,6.8925257,-0.020616686,0.0097738365,-0.016493348,0.38088515,0.012805718,-0.14521131,-1.95,-3.6937501,-36.581253
1763129404303,-1.3507484,6.835696,6.884749,-0.020616686,0.0097738365,-0.016493348,0.38088515,0.012805718,-0.14521131,-1.95,-3.6937501,-36.581253
1763129404318,-1.3507484,6.835696,6.884749,-0.020616686,0.0097738365,-0.016493348,0.38088515,0.012805718,-0.14521131,-0.28125,-3.1312501,-35.025
1763129404321,-1.3507484,6.835696,6.884749,0.011300999,0.020311253,-0.00641408,0.38088515,0.012805718,-0.14521131,-0.28125,-3.1312501,-35.025
1763129404322,-1.3507484,6.835696,6.884749,0.011300999,0.020311253,-0.00641408,0.38116387,0.013044444,-0.1452084,-0.28125,-3.1312501,-35.025
1763129404324,-1.4727824,6.7986073,6.9092755,0.011300999,0.020311253,-0.00641408,0.38116387,0.013044444,-0.1452084,-0.28125,-3.1312501,-35.025
1763129404340,-1.4727824,6.7986073,6.9092755,0.011300999,0.020311253,-0.00641408,0.38116387,0.013044444,-0.1452084,-1.48125,-2.775,-35.625
1763129404344,-1.4727824,6.7986073,6.9092755,0.04291325,0.03161225,0.013439025,0.38116387,0.013044444,-0.1452084,-1.48125,-2.775,-35.625
1763129404345,-1.3429717,6.850053,6.8614187,0.04291325,0.03161225,0.013439025,0.38116387,0.013044444,-0.1452084,-1.48125,-2.775,-35.625
1763129404347,-1.3429717,6.850053,6.8614187,0.04291325,0.03161225,0.013439025,0.38169816,0.01336362,-0.1452869,-1.48125,-2.775,-35.625
1763129404357,-1.3429717,6.850053,6.8614187,0.04291325,0.03161225,0.013439025,0.38169816,0.01336362,-0.1452869,-1.725,-3.61875,-35.475002
1763129404363,-1.3429717,6.850053,6.8614187,0.06582068,0.015424335,1.527162E-4,0.38169816,0.01336362,-0.1452869,-1.725,-3.61875,-35.475002
1763129404364,-1.3429717,6.850053,6.8614187,0.06582068,0.015424335,1.527162E-4,0.38248703,0.01344346,-0.14517614,-1.725,-3.61875,-35.475002
1763129404364,-1.2155539,6.983453,6.793822,0.06582068,0.015424335,1.527162E-4,0.38248703,0.01344346,-0.14517614,-1.725,-3.61875,-35.475002
1763129404377,-1.2155539,6.983453,6.793822,0.06582068,0.015424335,1.527162E-4,0.38248703,0.01344346,-0.14517614,-3.24375,-3.6562502,-36.225002
1763129404385,-1.2155539,6.983453,6.793822,0.06582068,0.015424335,1.527162E-4,0.3832461,0.013580244,-0.14503373,-3.24375,-3.6562502,-36.225002
1763129404386,-1.3076776,6.9535427,6.6825557,0.06582068,0.015424335,1.527162E-4,0.3832461,0.013580244,-0.14503373,-3.24375,-3.6562502,-36.225002
1763129404387,-1.3076776,6.9535427,6.6825557,0.044287696,0.017104214,-0.035430156,0.3832461,0.013580244,-0.14503373,-3.24375,-3.6562502,-36.225002
1763129404398,-1.3076776,6.9535427,6.6825557,0.044287696,0.017104214,-0.035430156,0.3832461,0.013580244,-0.14503373,-1.2,-5.11875,-36.75
1763129404405,-1.3076776,6.9535427,6.6825557,-0.0059559317,0.022449281,-0.034819294,0.3832461,0.013580244,-0.14503373,-1.2,-5.11875,-36.75
1763129404405,-1.4656038,6.8656063,6.59761,-0.0059559317,0.022449281,-0.034819294,0.3832461,0.013580244,-0.14503373,-1.2,-5.11875,-36.75
1763129404419,-1.4656038,6.8656063,6.59761,-0.0059559317,0.022449281,-0.034819294,0.38362864,0.013956215,-0.14499313,-1.2,-5.11875,-36.75
1763129404420,-1.4656038,6.8656063,6.59761,-0.0059559317,0.022449281,-0.034819294,0.38362864,0.013956215,-0.14499313,0.112500004,-1.44375,-36.43125
1763129404426,-1.4656038,6.8656063,6.59761,-0.040622506,-0.0097738365,-0.017409647,0.38362864,0.013956215,-0.14499313,0.112500004,-1.44375,-36.43125
1763129404427,-1.3974084,6.9044895,6.6771717,-0.040622506,-0.0097738365,-0.017409647,0.38362864,0.013956215,-0.14499313,0.112500004,-1.44375,-36.43125
1763129404440,-1.3974084,6.9044895,6.6771717,-0.040622506,-0.0097738365,-0.017409647,0.3836607,0.014131352,-0.14536798,0.112500004,-1.44375,-36.43125
1763129404441,-1.3974084,6.9044895,6.6771717,-0.040622506,-0.0097738365,-0.017409647,0.3836607,0.014131352,-0.14536798,0.01875,-2.5687501,-34.331253
1763129404447,-1.3974084,6.9044895,6.6771717,-0.058032155,-0.034208428,-0.022296565,0.3836607,0.014131352,-0.14536798,0.01875,-2.5687501,-34.331253
1763129404448,-1.2693924,6.9583282,6.948757,-0.058032155,-0.034208428,-0.022296565,0.3836607,0.014131352,-0.14536798,0.01875,-2.5687501,-34.331253
1763129404458,-1.2693924,6.9583282,6.948757,-0.058032155,-0.034208428,-0.022296565,0.38343644,0.014053089,-0.1456983,0.01875,-2.5687501,-34.331253
1763129404458,-1.2693924,6.9583282,6.948757,-0.058032155,-0.034208428,-0.022296565,0.38343644,0.014053089,-0.1456983,-1.6875001,-2.98125,-36.09375
1763129404468,-1.2693924,6.9583282,6.948757,-0.032833982,0.010079269,-0.03008509,0.38343644,0.014053089,-0.1456983,-1.6875001,-2.98125,-36.09375
1763129404469,-1.2987045,6.8243303,6.9948187,-0.032833982,0.010079269,-0.03008509,0.38343644,0.014053089,-0.1456983,-1.6875001,-2.98125,-36.09375
1763129404478,-1.2987045,6.8243303,6.9948187,-0.032833982,0.010079269,-0.03008509,0.38324842,0.014262302,-0.14559731,-1.6875001,-2.98125,-36.09375
1763129404479,-1.2987045,6.8243303,6.9948187,-0.032833982,0.010079269,-0.03008509,0.38324842,0.014262302,-0.14559731,-0.0375,-2.2687502,-34.425003
1763129404488,-1.2987045,6.8243303,6.9948187,0.04367683,-0.021991132,-0.0030543238,0.38324842,0.014262302,-0.14559731,-0.0375,-2.2687502,-34.425003
1763129404489,-1.5284154,6.6759753,6.7112694,0.04367683,-0.021991132,-0.0030543238,0.38324842,0.014262302,-0.14559731,-0.0375,-2.2687502,-34.425003
1763129404499,-1.5284154,6.6759753,6.7112694,0.04367683,-0.021991132,-0.0030543238,0.38353938,0.013959412,-0.14559962,-0.0375,-2.2687502,-34.425003
1763129404499,-1.5284154,6.6759753,6.7112694,0.04367683,-0.021991132,-0.0030543238,0.38353938,0.013959412,-0.14559962,-0.84375006,-2.625,-36.54375
1763129404514,-1.5284154,6.6759753,6.7112694,0.17363831,-0.020922119,0.0151189035,0.38353938,0.013959412,-0.14559962,-0.84375006,-2.625,-36.54375
1763129404515,-1.9555343,6.253642,5.7248282,0.17363831,-0.020922119,0.0151189035,0.38353938,0.013959412,-0.14559962,-0.84375006,-2.625,-36.54375
1763129404519,-1.9555343,6.253642,5.7248282,0.17363831,-0.020922119,0.0151189035,0.38522446,0.0136126485,-0.14609075,-0.84375006,-2.625,-36.54375
1763129404520,-1.9555343,6.253642,5.7248282,0.17363831,-0.020922119,0.0151189035,0.38522446,0.0136126485,-0.14609075,-1.48125,-2.775,-35.625
1763129404531,-1.9555343,6.253642,5.7248282,0.1310305,-0.23090689,0.093309596,0.38522446,0.0136126485,-0.14609075,-1.48125,-2.775,-35.625
1763129404531,-1.7401803,6.7094746,6.306284,0.1310305,-0.23090689,0.093309596,0.38522446,0.0136126485,-0.14609075,-1.48125,-2.775,-35.625
1763129404538,-1.7401803,6.7094746,6.306284,0.1310305,-0.23090689,0.093309596,0.38688654,0.011501073,-0.14787146,-1.48125,-2.775,-35.625
1763129404538,-1.7401803,6.7094746,6.306284,0.1310305,-0.23090689,0.093309596,0.38688654,0.011501073,-0.14787146,-9.525001,-7.2937503,-28.031252
1763129404553,-1.7401803,6.7094746,6.306284,-0.06856957,-0.16539164,0.14019346,0.38688654,0.011501073,-0.14787146,-9.525001,-7.2937503,-28.031252
1763129404554,-1.0319048,7.027122,6.2201424,-0.06856957,-0.16539164,0.14019346,0.38688654,0.011501073,-0.14787146,-9.525001,-7.2937503,-28.031252
1763129404559,-1.0319048,7.027122,6.2201424,-0.06856957,-0.16539164,0.14019346,0.3865511,0.009892784,-0.14825772,-9.525001,-7.2937503,-28.031252
1763129404560,-1.0319048,7.027122,6.2201424,-0.06856957,-0.16539164,0.14019346,0.3865511,0.009892784,-0.14825772,-1.5,-5.0062504,-34.893753
1763129404573,-1.0319048,7.027122,6.2201424,-0.25763223,-0.0820086,0.025045456,0.3865511,0.009892784,-0.14825772,-1.5,-5.0062504,-34.893753
1763129404574,-0.8279166,7.4015985,7.63789,-0.25763223,-0.0820086,0.025045456,0.3865511,0.009892784,-0.14825772,-1.5,-5.0062504,-34.893753
1763129404579,-0.8279166,7.4015985,7.63789,-0.25763223,-0.0820086,0.025045456,0.38490355,0.009263406,-0.14740531,-1.5,-5.0062504,-34.893753
1763129404580,-0.8279166,7.4015985,7.63789,-0.25763223,-0.0820086,0.025045456,0.38490355,0.009263406,-0.14740531,-2.4562502,-4.4437504,-36.693752
1763129404594,-0.8279166,7.4015985,7.63789,-0.29901832,0.16569707,-0.089797124,0.38490355,0.009263406,-0.14740531,-2.4562502,-4.4437504,-36.693752
1763129404595,-1.2137593,6.5629144,8.000402,-0.29901832,0.16569707,-0.089797124,0.38490355,0.009263406,-0.14740531,-2.4562502,-4.4437504,-36.693752
1763129404599,-1.2137593,6.5629144,8.000402,-0.29901832,0.16569707,-0.089797124,0.38490355,0.009263406,-0.14740531,-3.24375,-3.6562502,-35.925003
1763129404599,-1.2137593,6.5629144,8.000402,-0.29901832,0.16569707,-0.089797124,0.3820746,0.0111709,-0.1461483,-3.24375,-3.6562502,-35.925003
1763129404623,-1.2137593,6.5629144,8.000402,-0.003970621,0.21135922,-0.08949169,0.3820746,0.0111709,-0.1461483,-3.24375,-3.6562502,-35.925003
1763129404624,-2.0685952,6.512067,7.45783,-0.003970621,0.21135922,-0.08949169,0.3820746,0.0111709,-0.1461483,-3.24375,-3.6562502,-35.925003
1763129404624,-2.0685952,6.512067,7.45783,-0.003970621,0.21135922,-0.08949169,0.38087857,0.013356994,-0.14627808,-3.24375,-3.6562502,-35.925003
1763129404625,-2.0685952,6.512067,7.45783,-0.003970621,0.21135922,-0.08949169,0.38087857,0.013356994,-0.14627808,-1.5937501,-4.40625,-35.23125
