timestamp,accX,accY,accZ,gyroX,gyroY,gyroZ,rotX,rotY,rotZ,magX,magY,magZ
1763129359997,-5.1493545,8.108678,0.012562319,-0.03649917,-1.0302235,0.1386663,0.58433276,0.2739067,-0.041900557,23.75625,-9.8625,-29.325
1763129359998,-5.1493545,8.108678,0.012562319,-0.03649917,-1.0302235,0.1386663,0.58433276,0.2739067,-0.041900557,20.23125,-12.750001,-26.868752
1763129360006,-5.1493545,8.108678,0.012562319,-0.1669188,-1.2849541,0.20433427,0.58433276,0.2739067,-0.041900557,20.23125,-12.750001,-26.868752
1763129360007,-4.731209,8.263613,1.6671991,-0.1669188,-1.2849541,0.20433427,0.58433276,0.2739067,-0.041900557,20.23125,-12.750001,-26.868752
1763129360017,-4.731209,8.263613,1.6671991,-0.1669188,-1.2849541,0.20433427,0.58332056,0.26245818,-0.048087034,20.23125,-12.750001,-26.868752
1763129360018,-4.731209,8.263613,1.6671991,-0.1669188,-1.2849541,0.20433427,0.58332056,0.26245818,-0.048087034,22.331251,-9.075001,-28.593752
1763129360028,-4.731209,8.263613,1.6671991,-0.33735007,-0.95630884,0.12232567,0.58332056,0.26245818,-0.048087034,22.331251,-9.075001,-28.593752
1763129360029,-4.328018,8.52144,2.7266214,-0.33735007,-0.95630884,0.12232567,0.58332056,0.26245818,-0.048087034,22.331251,-9.075001,-28.593752
1763129360037,-4.328018,8.52144,2.7266214,-0.33735007,-0.95630884,0.12232567,0.58332056,0.26245818,-0.048087034,21.018751,-10.35,-29.1
1763129360038,-4.328018,8.52144,2.7266214,-0.33735007,-0.95630884,0.12232567,0.5804722,0.25417805,-0.052192867,21.018751,-10.35,-29.1
1763129360049,-4.328018,8.52144,2.7266214,-0.3035998,-0.69913477,-0.1226311,0.5804722,0.25417805,-0.052192867,21.018751,-10.35,-29.1
1763129360052,-4.4662037,8.977871,2.8540392,-0.3035998,-0.69913477,-0.1226311,0.5804722,0.25417805,-0.052192867,21.018751,-10.35,-29.1
1763129360059,-4.4662037,8.977871,2.8540392,-0.3035998,-0.69913477,-0.1226311,0.57714736,0.24940182,-0.056552652,21.018751,-10.35,-29.1
1763129360059,-4.4662037,8.977871,2.8540392,-0.3035998,-0.69913477,-0.1226311,0.57714736,0.24940182,-0.056552652,24.225,-7.2000003,-30.7875
1763129360070,-4.4662037,8.977871,2.8540392,-0.22098033,-0.56550807,-0.34254244,0.57714736,0.24940182,-0.056552652,24.225,-7.2000003,-30.7875
1763129360071,-5.136792,8.050652,1.9842482,-0.22098033,-0.56550807,-0.34254244,0.57714736,0.24940182,-0.056552652,24.225,-7.2000003,-30.7875
1763129360078,-5.136792,8.050652,1.9842482,-0.22098033,-0.56550807,-0.34254244,0.57398146,0.2469778,-0.06205538,24.225,-7.2000003,-30.7875
1763129360079,-5.136792,8.050652,1.9842482,-0.22098033,-0.56550807,-0.34254244,0.57398146,0.2469778,-0.06205538,20.25,-9.712501,-27.375002
1763129360091,-5.136792,8.050652,1.9842482,-0.18066326,-0.9630283,-0.28725916,0.57398146,0.2469778,-0.06205538,20.25,-9.712501,-27.375002
1763129360091,-6.2081785,7.776674,0.8662018,-0.18066326,-0.9630283,-0.28725916,0.57398146,0.2469778,-0.06205538,20.25,-9.712501,-27.375002
1763129360098,-6.2081785,7.776674,0.8662018,-0.18066326,-0.9630283,-0.28725916,0.57114995,0.24096584,-0.0700406,20.25,-9.712501,-27.375002
1763129360099,-6.2081785,7.776674,0.8662018,-0.18066326,-0.9630283,-0.28725916,0.57114995,0.24096584,-0.0700406,20.962502,-8.56875,-27.31875
1763129360112,-6.2081785,7.776674,0.8662018,-0.14080434,-1.7440189,0.023060145,0.57114995,0.24096584,-0.0700406,20.962502,-8.56875,-27.31875
1763129360113,-6.215357,7.596614,0.5706882,-0.14080434,-1.7440189,0.023060145,0.57114995,0.24096584,-0.0700406,20.962502,-8.56875,-27.31875
1763129360117,-6.215357,7.596614,0.5706882,-0.14080434,-1.7440189,0.023060145,0.5689867,0.22667062,-0.08075596,20.962502,-8.56875,-27.31875
1763129360118,-6.215357,7.596614,0.5706882,-0.14080434,-1.7440189,0.023060145,0.5689867,0.22667062,-0.08075596,11.25,-11.64375,-28.1625
1763129360133,-5.259424,7.6743803,1.0636097,-0.14080434,-1.7440189,0.023060145,0.5689867,0.22667062,-0.08075596,11.25,-11.64375,-28.1625
1763129360134,-5.259424,7.6743803,1.0636097,-0.16478078,-2.476293,0.35491243,0.5689867,0.22667062,-0.08075596,11.25,-11.64375,-28.1625
1763129360138,-5.259424,7.6743803,1.0636097,-0.16478078,-2.476293,0.35491243,0.5665824,0.20429529,-0.093119636,11.25,-11.64375,-28.1625
1763129360139,-5.259424,7.6743803,1.0636097,-0.16478078,-2.476293,0.35491243,0.5665824,0.20429529,-0.093119636,18.431252,-9.337501,-30.13125
1763129360154,-5.259424,7.6743803,1.0636097,-0.37568185,-2.8756459,0.5552761,0.5665824,0.20429529,-0.093119636,18.431252,-9.337501,-30.13125
1763129360155,-3.9595232,7.9393854,1.6797615,-0.37568185,-2.8756459,0.5552761,0.5665824,0.20429529,-0.093119636,18.431252,-9.337501,-30.13125
1763129360159,-3.9595232,7.9393854,1.6797615,-0.37568185,-2.8756459,0.5552761,0.56191874,0.1774468,-0.105393365,18.431252,-9.337501,-30.13125
1763129360160,-3.9595232,7.9393854,1.6797615,-0.37568185,-2.8756459,0.5552761,0.56191874,0.1774468,-0.105393365,18.825,-7.6687503,-31.968752
1763129360175,-3.9595232,7.9393854,1.6797615,-0.7626647,-2.7731733,0.5658135,0.56191874,0.1774468,-0.105393365,18.825,-7.6687503,-31.968752
1763129360176,-2.7900312,8.285149,2.9467611,-0.7626647,-2.7731733,0.5658135,0.56191874,0.1774468,-0.105393365,18.825,-7.6687503,-31.968752
1763129360178,-2.7900312,8.285149,2.9467611,-0.7626647,-2.7731733,0.5658135,0.55352175,0.15163441,-0.115741126,18.825,-7.6687503,-31.968752
1763129360179,-2.7900312,8.285149,2.9467611,-0.7626647,-2.7731733,0.5658135,0.55352175,0.15163441,-0.115741126,15.88125,-8.3625,-32.9625
1763129360196,-2.7900312,8.285149,2.9467611,-1.1577414,-2.0596833,0.49418962,0.55352175,0.15163441,-0.115741126,15.88125,-8.3625,-32.9625
1763129360197,-2.0685952,8.218747,4.458427,-1.1577414,-2.0596833,0.49418962,0.55352175,0.15163441,-0.115741126,15.88125,-8.3625,-32.9625
1763129360198,-2.0685952,8.218747,4.458427,-1.1577414,-2.0596833,0.49418962,0.5418958,0.13260669,-0.12143698,15.88125,-8.3625,-32.9625
1763129360199,-2.0685952,8.218747,4.458427,-1.1577414,-2.0596833,0.49418962,0.5418958,0.13260669,-0.12143698,13.387501,-8.625,-33.318752
1763129360218,-2.0685952,8.218747,4.458427,-1.1577414,-2.0596833,0.49418962,0.5294342,0.1207772,-0.12244244,13.387501,-8.625,-33.318752
1763129360219,-2.0685952,8.218747,4.458427,-1.3066398,-1.2565489,0.45341438,0.5294342,0.1207772,-0.12244244,13.387501,-8.625,-33.318752
1763129360220,-2.0685952,8.218747,4.458427,-1.3066398,-1.2565489,0.45341438,0.5294342,0.1207772,-0.12244244,9.84375,-9.6,-34.256252
1763129360220,-1.6594225,8.049456,5.005785,-1.3066398,-1.2565489,0.45341438,0.5294342,0.1207772,-0.12244244,9.84375,-9.6,-34.256252
1763129360238,-1.6594225,8.049456,5.005785,-1.3066398,-1.2565489,0.45341438,0.5188977,0.11158061,-0.12250151,9.84375,-9.6,-34.256252
1763129360239,-1.6594225,8.049456,5.005785,-1.0937533,-0.95646155,0.38591382,0.5188977,0.11158061,-0.12250151,9.84375,-9.6,-34.256252
1763129360240,-1.6558332,8.122437,4.9579287,-1.0937533,-0.95646155,0.38591382,0.5188977,0.11158061,-0.12250151,9.84375,-9.6,-34.256252
1763129360241,-1.6558332,8.122437,4.9579287,-1.0937533,-0.95646155,0.38591382,0.5188977,0.11158061,-0.12250151,8.925,-9.637501,-32.100002
1763129360257,-1.6558332,8.122437,4.9579287,-1.0937533,-0.95646155,0.38591382,0.5188977,0.11158061,-0.12250151,5.26875,-12.243751,-31.575
1763129360259,-1.9746768,8.353942,4.8095737,-1.0937533,-0.95646155,0.38591382,0.5188977,0.11158061,-0.12250151,5.26875,-12.243751,-31.575
1763129360259,-1.9746768,8.353942,4.8095737,-0.6751583,-0.96990055,0.29107708,0.5188977,0.11158061,-0.12250151,5.26875,-12.243751,-31.575
1763129360259,-1.9746768,8.353942,4.8095737,-0.6751583,-0.96990055,0.29107708,0.5118738,0.10221937,-0.12395836,5.26875,-12.243751,-31.575
1763129360277,-1.9746768,8.353942,4.8095737,-0.6751583,-0.96990055,0.29107708,0.5118738,0.10221937,-0.12395836,8.25,-5.30625,-33.75
1763129360279,-1.9746768,8.353942,4.8095737,-0.31917685,-0.93615025,0.23533566,0.5118738,0.10221937,-0.12395836,8.25,-5.30625,-33.75
1763129360280,-1.9746768,8.353942,4.8095737,-0.31917685,-0.93615025,0.23533566,0.508004,0.093008414,-0.12622502,8.25,-5.30625,-33.75
1763129360281,-2.0703897,8.517252,4.490132,-0.31917685,-0.93615025,0.23533566,0.508004,0.093008414,-0.12622502,8.25,-5.30625,-33.75
1763129360298,-2.0703897,8.517252,4.490132,-0.31917685,-0.93615025,0.23533566,0.508004,0.093008414,-0.12622502,7.6312504,-8.00625,-31.85625
1763129360301,-2.0703897,8.517252,4.490132,-0.16844596,-1.1304053,0.24831653,0.508004,0.093008414,-0.12622502,7.6312504,-8.00625,-31.85625
1763129360301,-2.0703897,8.517252,4.490132,-0.16844596,-1.1304053,0.24831653,0.50526774,0.08181534,-0.12961113,7.6312504,-8.00625,-31.85625
1763129360302,-1.8867407,8.514859,3.394817,-0.16844596,-1.1304053,0.24831653,0.50526774,0.08181534,-0.12961113,7.6312504,-8.00625,-31.85625
1763129360318,-1.8867407,8.514859,3.394817,-0.16844596,-1.1304053,0.24831653,0.50526774,0.08181534,-0.12961113,6.2812505,-8.981251,-33.35625
1763129360321,-1.8867407,8.514859,3.394817,-0.24663666,-1.2052362,0.1632536,0.50526774,0.08181534,-0.12961113,6.2812505,-8.981251,-33.35625
1763129360323,-1.8867407,8.514859,3.394817,-0.24663666,-1.2052362,0.1632536,0.50181454,0.07053194,-0.13402973,6.2812505,-8.981251,-33.35625
1763129360324,-1.4279169,9.251849,4.135994,-0.24663666,-1.2052362,0.1632536,0.50181454,0.07053194,-0.13402973,6.2812505,-8.981251,-33.35625
1763129360337,-1.4279169,9.251849,4.135994,-0.24663666,-1.2052362,0.1632536,0.50181454,0.07053194,-0.13402973,6.0,-7.275,-33.28125
1763129360343,-1.4279169,9.251849,4.135994,-0.33169958,-0.9760092,-0.026267186,0.50181454,0.07053194,-0.13402973,6.0,-7.275,-33.28125
1763129360345,-1.4279169,9.251849,4.135994,-0.33169958,-0.9760092,-0.026267186,0.49766853,0.0623561,-0.13864195,6.0,-7.275,-33.28125
1763129360346,-0.9924232,9.227921,4.691727,-0.33169958,-0.9760092,-0.026267186,0.49766853,0.0623561,-0.13864195,6.0,-7.275,-33.28125
1763129360358,-0.9924232,9.227921,4.691727,-0.33169958,-0.9760092,-0.026267186,0.49766853,0.0623561,-0.13864195,6.43125,-8.15625,-34.59375
1763129360364,-0.9924232,9.227921,4.691727,-0.33169958,-0.9760092,-0.026267186,0.49181208,0.055658273,-0.14563577,6.43125,-8.15625,-34.59375
1763129360365,-0.9924232,9.227921,4.691727,-0.4828886,-0.9943351,-0.30894485,0.49181208,0.055658273,-0.14563577,6.43125,-8.15625,-34.59375
1763129360366,-1.5170496,8.387442,4.8191447,-0.4828886,-0.9943351,-0.30894485,0.49181208,0.055658273,-0.14563577,6.43125,-8.15625,-34.59375
1763129360378,-1.5170496,8.387442,4.8191447,-0.4828886,-0.9943351,-0.30894485,0.49181208,0.055658273,-0.14563577,5.68125,-6.7125,-34.443752
1763129360385,-1.5170496,8.387442,4.8191447,-0.4828886,-0.9943351,-0.30894485,0.48411602,0.046949003,-0.15427257,5.68125,-6.7125,-34.443752
1763129360386,-1.5170496,8.387442,4.8191447,-0.62583095,-1.2528837,-0.3205513,0.48411602,0.046949003,-0.15427257,5.68125,-6.7125,-34.443752
1763129360387,-2.7643085,7.899306,4.8879385,-0.62583095,-1.2528837,-0.3205513,0.48411602,0.046949003,-0.15427257,5.68125,-6.7125,-34.443752
1763129360400,-2.7643085,7.899306,4.8879385,-0.62583095,-1.2528837,-0.3205513,0.48411602,0.046949003,-0.15427257,4.9875,-7.3500004,-32.9625
1763129360406,-2.7643085,7.899306,4.8879385,-0.6385064,-1.2373066,-0.117438756,0.48411602,0.046949003,-0.15427257,4.9875,-7.3500004,-32.9625
1763129360407,-3.0388846,7.5870423,4.7934217,-0.6385064,-1.2373066,-0.117438756,0.48411602,0.046949003,-0.15427257,4.9875,-7.3500004,-32.9625
1763129360419,-3.0388846,7.5870423,4.7934217,-0.6385064,-1.2373066,-0.117438756,0.476329,0.03747459,-0.16150048,4.9875,-7.3500004,-32.9625
1763129360420,-3.0388846,7.5870423,4.7934217,-0.6385064,-1.2373066,-0.117438756,0.476329,0.03747459,-0.16150048,3.6562502,-6.20625,-33.506252
1763129360427,-3.0388846,7.5870423,4.7934217,-0.6539307,-1.4234676,0.07513637,0.476329,0.03747459,-0.16150048,3.6562502,-6.20625,-33.506252
1763129360428,-2.603391,7.509874,5.5579286,-0.6539307,-1.4234676,0.07513637,0.476329,0.03747459,-0.16150048,3.6562502,-6.20625,-33.506252
1763129360437,-2.603391,7.509874,5.5579286,-0.6539307,-1.4234676,0.07513637,0.4680754,0.025418248,-0.16804169,3.6562502,-6.20625,-33.506252
1763129360438,-2.603391,7.509874,5.5579286,-0.6539307,-1.4234676,0.07513637,0.4680754,0.025418248,-0.16804169,3.5812502,-5.45625,-36.300003
1763129360450,-2.603391,7.509874,5.5579286,-0.7863357,-1.1681262,0.2283107,0.4680754,0.025418248,-0.16804169,3.5812502,-5.45625,-36.300003
1763129360451,-2.2002003,7.373483,6.7256265,-0.7863357,-1.1681262,0.2283107,0.4680754,0.025418248,-0.16804169,3.5812502,-5.45625,-36.300003
1763129360457,-2.2002003,7.373483,6.7256265,-0.7863357,-1.1681262,0.2283107,0.4588686,0.015132852,-0.17179583,3.5812502,-5.45625,-36.300003
1763129360458,-2.2002003,7.373483,6.7256265,-0.7863357,-1.1681262,0.2283107,0.4588686,0.015132852,-0.17179583,1.0500001,-7.3125005,-34.443752
1763129360469,-2.2002003,7.373483,6.7256265,-0.9450078,-0.675311,0.3509418,0.4588686,0.015132852,-0.17179583,1.0500001,-7.3125005,-34.443752
1763129360470,-2.300699,7.070193,8.3348,-0.9450078,-0.675311,0.3509418,0.4588686,0.015132852,-0.17179583,1.0500001,-7.3125005,-34.443752
1763129360478,-2.300699,7.070193,8.3348,-0.9450078,-0.675311,0.3509418,0.448831,0.009008063,-0.17195982,1.0500001,-7.3125005,-34.443752
1763129360479,-2.300699,7.070193,8.3348,-0.9450078,-0.675311,0.3509418,0.448831,0.009008063,-0.17195982,2.0812502,-5.7937503,-35.1375
1763129360491,-2.300699,7.070193,8.3348,-0.84452057,0.21105379,0.46166107,0.448831,0.009008063,-0.17195982,2.0812502,-5.7937503,-35.1375
1763129360492,-2.5615165,6.672984,8.872586,-0.84452057,0.21105379,0.46166107,0.448831,0.009008063,-0.17195982,2.0812502,-5.7937503,-35.1375
1763129360499,-2.5615165,6.672984,8.872586,-0.84452057,0.21105379,0.46166107,0.44096786,0.010328305,-0.1670672,2.0812502,-5.7937503,-35.1375
1763129360500,-2.5615165,6.672984,8.872586,-0.84452057,0.21105379,0.46166107,0.44096786,0.010328305,-0.1670672,-0.95625,-6.80625,-34.85625
1763129360511,-2.5615165,6.672984,8.872586,-0.36712974,0.64644766,0.7150172,0.44096786,0.010328305,-0.1670672,-0.95625,-6.80625,-34.85625
1763129360512,-2.8390841,6.8721867,9.01795,-0.36712974,0.64644766,0.7150172,0.44096786,0.010328305,-0.1670672,-0.95625,-6.80625,-34.85625
1763129360517,-2.8390841,6.8721867,9.01795,-0.36712974,0.64644766,0.7150172,0.44096786,0.010328305,-0.1670672,0.58125,-6.1312504,-34.125
1763129360518,-2.8390841,6.8721867,9.01795,-0.36712974,0.64644766,0.7150172,0.43813655,0.013697622,-0.1579979,0.58125,-6.1312504,-34.125
1763129360533,-2.8390841,6.8721867,9.01795,0.37491825,0.7629701,0.97264946,0.43813655,0.013697622,-0.1579979,0.58125,-6.1312504,-34.125
1763129360534,-2.5591238,7.2676005,8.263015,0.37491825,0.7629701,0.97264946,0.43813655,0.013697622,-0.1579979,0.58125,-6.1312504,-34.125
1763129360538,-2.5591238,7.2676005,8.263015,0.37491825,0.7629701,0.97264946,0.44235212,0.015770065,-0.14618912,0.58125,-6.1312504,-34.125
1763129360540,-2.5591238,7.2676005,8.263015,0.37491825,0.7629701,0.97264946,0.44235212,0.015770065,-0.14618912,0.075,-6.7500005,-35.49375
1763129360553,-2.5591238,7.2676005,8.263015,1.0459533,0.5157226,1.0713041,0.44235212,0.015770065,-0.14618912,0.075,-6.7500005,-35.49375
1763129360554,-2.0877378,7.26102,7.0205417,1.0459533,0.5157226,1.0713041,0.44235212,0.015770065,-0.14618912,0.075,-6.7500005,-35.49375
1763129360558,-2.0877378,7.26102,7.0205417,1.0459533,0.5157226,1.0713041,0.45247352,0.014050346,-0.13457575,0.075,-6.7500005,-35.49375
1763129360559,-2.0877378,7.26102,7.0205417,1.0459533,0.5157226,1.0713041,0.45247352,0.014050346,-0.13457575,0.15,-7.2187505,-35.943752
1763129360575,-2.0877378,7.26102,7.0205417,1.4161372,0.21471897,1.0093013,0.45247352,0.014050346,-0.13457575,0.15,-7.2187505,-35.943752
1763129360576,-1.585245,7.146763,5.7966127,1.4161372,0.21471897,1.0093013,0.45247352,0.014050346,-0.13457575,0.15,-7.2187505,-35.943752
1763129360579,-1.585245,7.146763,5.7966127,1.4161372,0.21471897,1.0093013,0.4656027,0.009295199,-0.124832295,0.15,-7.2187505,-35.943752
1763129360581,-1.585245,7.146763,5.7966127,1.4161372,0.21471897,1.0093013,0.4656027,0.009295199,-0.124832295,0.95625,-6.8437505,-34.125
1763129360595,-1.585245,7.146763,5.7966127,1.3571888,0.116980605,0.9524909,0.4656027,0.009295199,-0.124832295,0.95625,-6.8437505,-34.125
1763129360595,-1.1946167,7.5469627,4.601996,1.3571888,0.116980605,0.9524909,0.4656027,0.009295199,-0.124832295,0.95625,-6.8437505,-34.125
1763129360598,-1.1946167,7.5469627,4.601996,1.3571888,0.116980605,0.9524909,0.47805348,0.0039646993,-0.115883164,0.95625,-6.8437505,-34.125
1763129360601,-1.1946167,7.5469627,4.601996,1.3571888,0.116980605,0.9524909,0.47805348,0.0039646993,-0.115883164,0.88125,-7.8375,-34.800003
1763129360616,-1.1946167,7.5469627,4.601996,0.95020014,0.09682207,0.91904604,0.47805348,0.0039646993,-0.115883164,0.88125,-7.8375,-34.800003
1763129360617,-0.84825563,8.012366,3.7633119,0.95020014,0.09682207,0.91904604,0.47805348,0.0039646993,-0.115883164,0.88125,-7.8375,-34.800003
1763129360619,-0.84825563,8.012366,3.7633119,0.95020014,0.09682207,0.91904604,0.4868686,-9.001862E-4,-0.10713164,0.88125,-7.8375,-34.800003
1763129360620,-0.84825563,8.012366,3.7633119,0.95020014,0.09682207,0.91904604,0.4868686,-9.001862E-4,-0.10713164,0.84375006,-7.6687503,-33.956253
1763129360638,-0.84825563,8.012366,3.7633119,0.95020014,0.09682207,0.91904604,0.49085313,-0.005022695,-0.09887779,0.84375006,-7.6687503,-33.956253
1763129360639,-0.84825563,8.012366,3.7633119,0.95020014,0.09682207,0.91904604,0.49085313,-0.005022695,-0.09887779,1.5,-7.8375,-32.9625
1763129360641,-0.52163535,8.1738825,3.3038898,0.95020014,0.09682207,0.91904604,0.49085313,-0.005022695,-0.09887779,1.5,-7.8375,-32.9625
1763129360642,-0.52163535,8.1738825,3.3038898,0.4082104,0.07834341,0.85826504,0.49085313,-0.005022695,-0.09887779,1.5,-7.8375,-32.9625
1763129360659,-0.52163535,8.1738825,3.3038898,0.4082104,0.07834341,0.85826504,0.490419,-0.008366297,-0.09170046,1.5,-7.8375,-32.9625
1763129360660,-0.52163535,8.1738825,3.3038898,0.4082104,0.07834341,0.85826504,0.490419,-0.008366297,-0.09170046,2.1937501,-6.7125,-32.1375
1763129360661,-0.52163535,8.1738825,3.3038898,-0.082466744,0.046731155,0.7480039,0.490419,-0.008366297,-0.09170046,2.1937501,-6.7125,-32.1375
1763129360662,-0.19501504,8.311469,3.4157543,-0.082466744,0.046731155,0.7480039,0.490419,-0.008366297,-0.09170046,2.1937501,-6.7125,-32.1375
1763129360677,-0.19501504,8.311469,3.4157543,-0.082466744,0.046731155,0.7480039,0.490419,-0.008366297,-0.09170046,2.15625,-4.65,-35.41875
1763129360678,-0.19501504,8.311469,3.4157543,-0.37048948,0.04382955,0.59650946,0.490419,-0.008366297,-0.09170046,2.15625,-4.65,-35.41875
1763129360679,-0.19501504,8.311469,3.4157543,-0.37048948,0.04382955,0.59650946,0.48735225,-0.010699871,-0.08584352,2.15625,-4.65,-35.41875
1763129360680,0.2009971,8.489735,3.891926,-0.37048948,0.04382955,0.59650946,0.48735225,-0.010699871,-0.08584352,2.15625,-4.65,-35.41875
1763129360698,0.2009971,8.489735,3.891926,-0.37048948,0.04382955,0.59650946,0.48735225,-0.010699871,-0.08584352,-0.112500004,-7.1062503,-35.90625
1763129360700,0.2009971,8.489735,3.891926,-0.434783,0.014966187,0.41157013,0.48735225,-0.010699871,-0.08584352,-0.112500004,-7.1062503,-35.90625
1763129360701,0.2009971,8.489735,3.891926,-0.434783,0.014966187,0.41157013,0.4819038,0.042491253,0.017444674,-0.112500004,-7.1062503,-35.90625
1763129360703,0.57607204,8.4909315,4.7024946,-0.434783,0.014966187,0.41157013,0.4819038,0.042491253,0.017444674,-0.112500004,-7.1062503,-35.90625
1763129360717,0.57607204,8.4909315,4.7024946,-0.434783,0.014966187,0.41157013,0.4819038,0.042491253,0.017444674,-0.50625,-7.05,-35.8875
1763129360721,0.57607204,8.4909315,4.7024946,-0.3744601,0.058795735,0.205556,0.4819038,0.042491253,0.017444674,-0.50625,-7.05,-35.8875
1763129360722,0.57607204,8.4909315,4.7024946,-0.3744601,0.058795735,0.205556,0.4789344,0.038814176,0.014686896,-0.50625,-7.05,-35.8875
1763129360724,0.6855437,8.310871,5.155935,-0.3744601,0.058795735,0.205556,0.4789344,0.038814176,0.014686896,-0.50625,-7.05,-35.8875
1763129360738,0.6855437,8.310871,5.155935,-0.3744601,0.058795735,0.205556,0.4789344,0.038814176,0.014686896,-0.15,-7.1062503,-34.3875
1763129360742,0.6855437,8.310871,5.155935,-0.3744601,0.058795735,0.205556,0.47672603,0.037041184,0.0120485285,-0.15,-7.1062503,-34.3875
1763129360743,0.34636107,8.324032,5.1906304,-0.3744601,0.058795735,0.205556,0.47672603,0.037041184,0.0120485285,-0.15,-7.1062503,-34.3875
1763129360744,0.34636107,8.324032,5.1906304,-0.26419902,0.091324285,0.04780017,0.47672603,0.037041184,0.0120485285,-0.15,-7.1062503,-34.3875
1763129360759,0.34636107,8.324032,5.1906304,-0.26419902,0.091324285,0.04780017,0.47672603,0.037041184,0.0120485285,0.975,-6.05625,-35.100002
1763129360762,-0.07836494,8.401798,4.928018,-0.26419902,0.091324285,0.04780017,0.47672603,0.037041184,0.0120485285,0.975,-6.05625,-35.100002
1763129360764,-0.07836494,8.401798,4.928018,-0.13500112,0.03451386,-0.03604102,0.47672603,0.037041184,0.0120485285,0.975,-6.05625,-35.100002
1763129360765,-0.07836494,8.401798,4.928018,-0.13500112,0.03451386,-0.03604102,0.4754366,0.03832001,0.013888666,0.975,-6.05625,-35.100002
1763129360778,-0.07836494,8.401798,4.928018,-0.13500112,0.03451386,-0.03604102,0.4754366,0.03832001,0.013888666,0.65625,-6.6000004,-33.99375
1763129360784,-0.07836494,8.401798,4.928018,-0.13500112,0.03451386,-0.03604102,0.4753474,0.034438934,0.006704631,0.65625,-6.6000004,-33.99375
1763129360785,-0.07836494,8.401798,4.928018,-0.04657844,-0.098654665,-0.07925971,0.4753474,0.034438934,0.006704631,0.65625,-6.6000004,-33.99375
1763129360787,-0.35593235,8.376674,4.846064,-0.04657844,-0.098654665,-0.07925971,0.4753474,0.034438934,0.006704631,0.65625,-6.6000004,-33.99375
1763129360797,-0.35593235,8.376674,4.846064,-0.04657844,-0.098654665,-0.07925971,0.4753474,0.034438934,0.006704631,1.35,-5.30625,-34.425003
1763129360804,-0.35593235,8.376674,4.846064,-0.04657844,-0.098654665,-0.07925971,0.47439176,0.03427361,0.006382664,1.35,-5.30625,-34.425003
1763129360805,-0.43429732,8.263613,5.1936216,-0.04657844,-0.098654665,-0.07925971,0.47439176,0.03427361,0.006382664,1.35,-5.30625,-34.425003
1763129360806,-0.43429732,8.263613,5.1936216,-0.11056653,-0.11514801,-0.083993904,0.47439176,0.03427361,0.006382664,1.35,-5.30625,-34.425003
1763129360818,-0.43429732,8.263613,5.1936216,-0.11056653,-0.11514801,-0.083993904,0.47439176,0.03427361,0.006382664,0.075,-6.9,-34.237503
1763129360826,-0.43429732,8.263613,5.1936216,-0.21639885,-0.041691523,-0.08781181,0.47439176,0.03427361,0.006382664,0.075,-6.9,-34.237503
1763129360827,-0.4223332,8.135597,5.4107704,-0.21639885,-0.041691523,-0.08781181,0.47439176,0.03427361,0.006382664,0.075,-6.9,-34.237503
1763129360838,-0.4223332,8.135597,5.4107704,-0.21639885,-0.041691523,-0.08781181,0.47281718,0.028262094,-0.0057777837,0.075,-6.9,-34.237503
1763129360840,-0.4223332,8.135597,5.4107704,-0.21639885,-0.041691523,-0.08781181,0.47281718,0.028262094,-0.0057777837,-1.6125001,-8.25,-34.96875
1763129360849,-0.4223332,8.135597,5.4107704,-0.22861615,-0.060781047,-0.115911596,0.47281718,0.028262094,-0.0057777837,-1.6125001,-8.25,-34.96875
1763129360850,-0.64247286,8.096115,5.6004014,-0.22861615,-0.060781047,-0.115911596,0.47281718,0.028262094,-0.0057777837,-1.6125001,-8.25,-34.96875
1763129360858,-0.64247286,8.096115,5.6004014,-0.22861615,-0.060781047,-0.115911596,0.4708132,0.025799848,-0.011676364,-1.6125001,-8.25,-34.96875
1763129360859,-0.64247286,8.096115,5.6004014,-0.22861615,-0.060781047,-0.115911596,0.4708132,0.025799848,-0.011676364,0.50625,-7.1250005,-34.350002
1763129360868,-0.64247286,8.096115,5.6004014,-0.20189081,-0.064140804,-0.11866048,0.4708132,0.025799848,-0.011676364,0.50625,-7.1250005,-34.350002
1763129360868,-0.73340017,8.017152,5.7463636,-0.20189081,-0.064140804,-0.11866048,0.4708132,0.025799848,-0.011676364,0.50625,-7.1250005,-34.350002
1763129360877,-0.73340017,8.017152,5.7463636,-0.20189081,-0.064140804,-0.11866048,0.46898863,0.023745444,-0.016976573,0.50625,-7.1250005,-34.350002
1763129360878,-0.73340017,8.017152,5.7463636,-0.20189081,-0.064140804,-0.11866048,0.46898863,0.023745444,-0.016976573,-0.54375005,-6.8812504,-35.625
1763129360888,-0.73340017,8.017152,5.7463636,-0.18402301,-0.04703659,-0.10690133,0.46898863,0.023745444,-0.016976573,-0.54375005,-6.8812504,-35.625
1763129360889,-0.6681957,8.003393,5.7744794,-0.18402301,-0.04703659,-0.10690133,0.46898863,0.023745444,-0.016976573,-0.54375005,-6.8812504,-35.625
1763129360900,-0.6681957,8.003393,5.7744794,-0.18402301,-0.04703659,-0.10690133,0.46723363,0.023102364,-0.019685237,-0.54375005,-6.8812504,-35.625
1763129360901,-0.6681957,8.003393,5.7744794,-0.18402301,-0.04703659,-0.10690133,0.46723363,0.023102364,-0.019685237,0.76875,-5.6062503,-34.66875
1763129360910,-0.6681957,8.003393,5.7744794,-0.16630794,-0.0021380268,-0.10674862,0.46723363,0.023102364,-0.019685237,0.76875,-5.6062503,-34.66875
1763129360911,-0.6831509,7.9011,5.8558354,-0.16630794,-0.0021380268,-0.10674862,0.46723363,0.023102364,-0.019685237,0.76875,-5.6062503,-34.66875
1763129360918,-0.6831509,7.9011,5.8558354,-0.16630794,-0.0021380268,-0.10674862,0.46564707,0.022967536,-0.021959953,0.76875,-5.6062503,-34.66875
1763129360919,-0.6831509,7.9011,5.8558354,-0.16630794,-0.0021380268,-0.10674862,0.46564707,0.022967536,-0.021959953,-0.0375,-6.1312504,-35.23125
1763129360932,-0.6831509,7.9011,5.8558354,-0.14767656,0.059559315,-0.10567961,0.46564707,0.022967536,-0.021959953,-0.0375,-6.1312504,-35.23125
1763129360934,-0.8458628,7.757531,5.730212,-0.14767656,0.059559315,-0.10567961,0.46564707,0.022967536,-0.021959953,-0.0375,-6.1312504,-35.23125
1763129360938,-0.8458628,7.757531,5.730212,-0.14767656,0.059559315,-0.10567961,0.46421435,0.023617513,-0.023512011,-0.0375,-6.1312504,-35.23125
1763129360939,-0.8458628,7.757531,5.730212,-0.14767656,0.059559315,-0.10567961,0.46421435,0.023617513,-0.023512011,0.056250002,-6.7312503,-34.425003
1763129360952,-0.8458628,7.757531,5.730212,-0.10522146,0.05146536,-0.058032155,0.46421435,0.023617513,-0.023512011,0.056250002,-6.7312503,-34.425003
1763129360952,-0.9320044,7.732406,5.6261244,-0.10522146,0.05146536,-0.058032155,0.46421435,0.023617513,-0.023512011,0.056250002,-6.7312503,-34.425003
1763129360957,-0.9320044,7.732406,5.6261244,-0.10522146,0.05146536,-0.058032155,0.46316662,0.024551777,-0.023613924,0.056250002,-6.7312503,-34.425003
1763129360958,-0.9320044,7.732406,5.6261244,-0.10522146,0.05146536,-0.058032155,0.46316662,0.024551777,-0.023613924,-0.61875004,-6.43125,-35.475002
1763129360973,-0.9320044,7.732406,5.6261244,-0.032070402,-0.0108428495,-0.0050396346,0.46316662,0.024551777,-0.023613924,-0.61875004,-6.43125,-35.475002
1763129360974,-0.8039884,7.914261,5.6075797,-0.032070402,-0.0108428495,-0.0050396346,0.46316662,0.024551777,-0.023613924,-0.61875004,-6.43125,-35.475002
1763129360978,-0.8039884,7.914261,5.6075797,-0.032070402,-0.0108428495,-0.0050396346,0.4627849,0.025182651,-0.022537814,-0.61875004,-6.43125,-35.475002
1763129360980,-0.8039884,7.914261,5.6075797,-0.032070402,-0.0108428495,-0.0050396346,0.4627849,0.025182651,-0.022537814,-0.675,-6.1125,-35.86875
1763129360994,-0.8039884,7.914261,5.6075797,-0.0035124724,-0.014508039,-0.012675445,0.4627849,0.025182651,-0.022537814,-0.675,-6.1125,-35.86875
1763129360995,-0.6155536,7.9633136,5.5860443,-0.0035124724,-0.014508039,-0.012675445,0.4627849,0.025182651,-0.022537814,-0.675,-6.1125,-35.86875
1763129360998,-0.6155536,7.9633136,5.5860443,-0.0035124724,-0.014508039,-0.012675445,0.46269533,0.025737843,-0.021615306,-0.675,-6.1125,-35.86875
1763129360999,-0.6155536,7.9633136,5.5860443,-0.0035124724,-0.014508039,-0.012675445,0.46269533,0.025737843,-0.021615306,0.3,-6.675,-34.36875
1763129361016,-0.6155536,7.9633136,5.5860443,-0.03405571,0.03527744,-0.041233372,0.46269533,0.025737843,-0.021615306,0.3,-6.675,-34.36875
1763129361018,-0.5952146,7.9334035,5.6153564,-0.03405571,0.03527744,-0.041233372,0.46269533,0.025737843,-0.021615306,0.3,-6.675,-34.36875
1763129361019,-0.5952146,7.9334035,5.6153564,-0.03405571,0.03527744,-0.041233372,0.46241397,0.025486391,-0.023307618,0.3,-6.675,-34.36875
1763129361020,-0.5952146,7.9334035,5.6153564,-0.03405571,0.03527744,-0.041233372,0.46241397,0.025486391,-0.023307618,-0.71250004,-5.9437504,-34.40625
1763129361036,-0.7286145,7.926823,5.465207,-0.03405571,0.03527744,-0.041233372,0.46241397,0.025486391,-0.023307618,-0.71250004,-5.9437504,-34.40625
1763129361037,-0.7286145,7.926823,5.465207,-0.016187917,0.017409647,-0.042607818,0.46241397,0.025486391,-0.023307618,-0.71250004,-5.9437504,-34.40625
1763129361038,-0.7286145,7.926823,5.465207,-0.016187917,0.017409647,-0.042607818,0.46229163,0.024946643,-0.02533079,-0.71250004,-5.9437504,-34.40625
1763129361039,-0.7286145,7.926823,5.465207,-0.016187917,0.017409647,-0.042607818,0.46229163,0.024946643,-0.02533079,0.20625001,-5.26875,-34.93125
1763129361059,-0.7286145,7.926823,5.465207,-0.015424335,-0.026725333,-0.030695954,0.46229163,0.024946643,-0.02533079,0.20625001,-5.26875,-34.93125
1763129361064,-0.7286145,7.926823,5.465207,-0.015424335,-0.026725333,-0.030695954,0.46218103,0.02421466,-0.026999194,0.20625001,-5.26875,-34.93125
1763129361065,-0.7286145,7.926823,5.465207,-0.015424335,-0.026725333,-0.030695954,0.46218103,0.02421466,-0.026999194,1.2,-5.83125,-35.25
1763129361066,-0.7262217,7.923234,5.4687963,-0.015424335,-0.026725333,-0.030695954,0.46218103,0.02421466,-0.026999194,1.2,-5.83125,-35.25
1763129361078,-0.6729814,7.9310107,5.5369916,-0.015424335,-0.026725333,-0.030695954,0.46218103,0.02421466,-0.026999194,1.2,-5.83125,-35.25
1763129361079,-0.6729814,7.9310107,5.5369916,-0.015424335,-0.026725333,-0.030695954,0.46218103,0.02421466,-0.026999194,1.48125,-5.9437504,-35.737503
1763129361080,-0.6729814,7.9310107,5.5369916,-0.058795735,-0.009315688,-0.023823727,0.46218103,0.02421466,-0.026999194,1.48125,-5.9437504,-35.737503
1763129361081,-0.6729814,7.9310107,5.5369916,-0.058795735,-0.009315688,-0.023823727,0.46164513,0.024208987,-0.027386565,1.48125,-5.9437504,-35.737503
1763129361098,-0.6729814,7.9310107,5.5369916,-0.058795735,-0.009315688,-0.023823727,0.46164513,0.024208987,-0.027386565,-0.93750006,-6.8250003,-35.60625
1763129361099,-0.6729814,7.9310107,5.5369916,-0.058795735,-0.009315688,-0.023823727,0.4606586,0.02444745,-0.027903464,-0.93750006,-6.8250003,-35.60625
1763129361101,-0.6729814,7.9310107,5.5369916,-0.10766492,0.021532983,-0.035430156,0.4606586,0.02444745,-0.027903464,-0.93750006,-6.8250003,-35.60625
1763129361103,-0.61734825,7.962117,5.578866,-0.10766492,0.021532983,-0.035430156,0.4606586,0.02444745,-0.027903464,-0.93750006,-6.8250003,-35.60625
1763129361117,-0.61734825,7.962117,5.578866,-0.10766492,0.021532983,-0.035430156,0.4606586,0.02444745,-0.027903464,1.03125,-4.9125004,-34.631252
1763129361119,-0.61734825,7.962117,5.578866,-0.107817635,0.029779658,-0.054061532,0.4606586,0.02444745,-0.027903464,1.03125,-4.9125004,-34.631252
1763129361120,-0.61734825,7.962117,5.578866,-0.107817635,0.029779658,-0.054061532,0.45964846,0.025203625,-0.027837845,1.03125,-4.9125004,-34.631252
1763129361123,-0.6538388,7.905886,5.6482577,-0.107817635,0.029779658,-0.054061532,0.45964846,0.025203625,-0.027837845,1.03125,-4.9125004,-34.631252
1763129361138,-0.6538388,7.905886,5.6482577,-0.107817635,0.029779658,-0.054061532,0.45964846,0.025203625,-0.027837845,0.056250002,-6.7312503,-34.125
1763129361140,-0.6538388,7.905886,5.6482577,-0.07238748,-0.019547673,-0.049480047,0.45964846,0.025203625,-0.027837845,0.056250002,-6.7312503,-34.125
1763129361141,-0.6538388,7.905886,5.6482577,-0.07238748,-0.019547673,-0.049480047,0.45896813,0.024909893,-0.02907062,0.056250002,-6.7312503,-34.125
1763129361144,-0.75254273,7.9334035,5.6578293,-0.07238748,-0.019547673,-0.049480047,0.45896813,0.024909893,-0.02907062,0.056250002,-6.7312503,-34.125
1763129361158,-0.75254273,7.9334035,5.6578293,-0.07238748,-0.019547673,-0.049480047,0.45896813,0.024909893,-0.02907062,0.375,-4.89375,-33.91875
1763129361161,-0.75254273,7.9334035,5.6578293,-0.05070178,-0.033902995,-0.039095346,0.45896813,0.024909893,-0.02907062,0.375,-4.89375,-33.91875
1763129361162,-0.75254273,7.9334035,5.6578293,-0.05070178,-0.033902995,-0.039095346,0.45852697,0.02379297,-0.03156314,0.375,-4.89375,-33.91875
1763129361162,-0.7399804,7.885547,5.730212,-0.05070178,-0.033902995,-0.039095346,0.45852697,0.02379297,-0.03156314,0.375,-4.89375,-33.91875
1763129361179,-0.7399804,7.885547,5.730212,-0.05070178,-0.033902995,-0.039095346,0.45852697,0.02379297,-0.03156314,-0.71250004,-5.9625,-35.006252
1763129361183,-0.7399804,7.885547,5.730212,-0.06811142,0.00641408,-0.045203995,0.45852697,0.02379297,-0.03156314,-0.71250004,-5.9625,-35.006252
1763129361184,-0.7399804,7.885547,5.730212,-0.06811142,0.00641408,-0.045203995,0.4578716,0.02397285,-0.03219061,-0.71250004,-5.9625,-35.006252
1763129361185,-0.7052845,7.88794,5.710471,-0.06811142,0.00641408,-0.045203995,0.4578716,0.02397285,-0.03219061,-0.71250004,-5.9625,-35.006252
1763129361199,-0.7052845,7.88794,5.710471,-0.06811142,0.00641408,-0.045203995,0.4578716,0.02397285,-0.03219061,-1.40625,-5.4750004,-35.643753
1763129361203,-0.7052845,7.88794,5.710471,-0.08613193,0.007177661,-0.051618073,0.4578716,0.02397285,-0.03219061,-1.40625,-5.4750004,-35.643753
1763129361204,-0.7052845,7.88794,5.710471,-0.08613193,0.007177661,-0.051618073,0.4570723,0.023842394,-0.033533115,-1.40625,-5.4750004,-35.643753
1763129361205,-0.78664047,7.8753777,5.6674004,-0.08613193,0.007177661,-0.051618073,0.4570723,0.023842394,-0.033533115,-1.40625,-5.4750004,-35.643753
1763129361217,-0.78664047,7.8753777,5.6674004,-0.08613193,0.007177661,-0.051618073,0.4570723,0.023842394,-0.033533115,-0.80625004,-5.4750004,-33.35625
1763129361225,-0.78664047,7.8753777,5.6674004,-0.07834341,-0.016035201,-0.0386372,0.4570723,0.023842394,-0.033533115,-0.80625004,-5.4750004,-33.35625
1763129361226,-0.8249256,7.8053875,5.6949177,-0.07834341,-0.016035201,-0.0386372,0.4570723,0.023842394,-0.033533115,-0.80625004,-5.4750004,-33.35625
1763129361238,-0.8249256,7.8053875,5.6949177,-0.07834341,-0.016035201,-0.0386372,0.4570723,0.023842394,-0.033533115,-0.58125,-6.8812504,-33.225002
1763129361245,-0.8249256,7.8053875,5.6949177,-0.068722285,-0.02046397,-0.028405212,0.4570723,0.023842394,-0.033533115,-0.58125,-6.8812504,-33.225002
1763129361247,-0.79740816,7.7910304,5.7876396,-0.068722285,-0.02046397,-0.028405212,0.4570723,0.023842394,-0.033533115,-0.58125,-6.8812504,-33.225002
1763129361259,-0.79740816,7.7910304,5.7876396,-0.068722285,-0.02046397,-0.028405212,0.4570723,0.023842394,-0.033533115,-0.58125,-6.8812504,-33.225002
1763129361260,-0.79740816,7.7910304,5.7876396,-0.068722285,-0.02046397,-0.028405212,0.4563249,0.024000477,-0.034035206,-0.58125,-6.8812504,-33.225002
1763129361261,-0.79740816,7.7910304,5.7876396,-0.068722285,-0.02046397,-0.028405212,0.4556209,0.02357895,-0.035554696,-0.58125,-6.8812504,-33.225002
1763129361267,-0.79740816,7.7910304,5.7876396,-0.06291907,0.014966187,-0.029626941,0.4556209,0.02357895,-0.035554696,-0.58125,-6.8812504,-33.225002
1763129361267,-0.67836523,7.8227353,5.7266226,-0.06291907,0.014966187,-0.029626941,0.4556209,0.02357895,-0.035554696,-0.58125,-6.8812504,-33.225002
1763129361277,-0.67836523,7.8227353,5.7266226,-0.06291907,0.014966187,-0.029626941,0.4548747,0.023500813,-0.036754426,-0.58125,-6.8812504,-33.225002
1763129361278,-0.67836523,7.8227353,5.7266226,-0.06291907,0.014966187,-0.029626941,0.4548747,0.023500813,-0.036754426,0.26250002,-6.525,-33.975002
1763129361287,-0.67836523,7.8227353,5.7266226,-0.03940078,-1.527162E-4,-0.049480047,0.4548747,0.023500813,-0.036754426,0.26250002,-6.525,-33.975002
1763129361288,-0.6843473,7.841878,5.7200427,-0.03940078,-1.527162E-4,-0.049480047,0.4548747,0.023500813,-0.036754426,0.26250002,-6.525,-33.975002
1763129361298,-0.6843473,7.841878,5.7200427,-0.03940078,-1.527162E-4,-0.049480047,0.45445284,0.023297213,-0.03786659,0.26250002,-6.525,-33.975002
1763129361299,-0.6843473,7.841878,5.7200427,-0.03940078,-1.527162E-4,-0.049480047,0.45445284,0.023297213,-0.03786659,-4.6125,-8.775001,-33.600002
1763129361309,-0.6843473,7.841878,5.7200427,-0.03848448,0.009010255,-0.06093376,0.45445284,0.023297213,-0.03786659,-4.6125,-8.775001,-33.600002
1763129361310,-0.7800602,7.780263,5.6644096,-0.03848448,0.009010255,-0.06093376,0.45445284,0.023297213,-0.03786659,-4.6125,-8.775001,-33.600002
1763129361318,-0.7800602,7.780263,5.6644096,-0.03848448,0.009010255,-0.06093376,0.45406574,0.023524597,-0.038457014,-4.6125,-8.775001,-33.600002
1763129361318,-0.7800602,7.780263,5.6644096,-0.03848448,0.009010255,-0.06093376,0.45406574,0.023524597,-0.038457014,-0.46875003,-5.8875003,-34.65
1763129361329,-0.7800602,7.780263,5.6644096,-0.052839804,-0.0025961753,-0.049174614,0.45406574,0.023524597,-0.038457014,-0.46875003,-5.8875003,-34.65
1763129361331,-0.84825563,7.786245,5.6356955,-0.052839804,-0.0025961753,-0.049174614,0.45406574,0.023524597,-0.038457014,-0.46875003,-5.8875003,-34.65
1763129361339,-0.84825563,7.786245,5.6356955,-0.052839804,-0.0025961753,-0.049174614,0.45359147,0.023400577,-0.039728455,-0.46875003,-5.8875003,-34.65
1763129361340,-0.84825563,7.786245,5.6356955,-0.052839804,-0.0025961753,-0.049174614,0.45359147,0.023400577,-0.039728455,-3.1875002,-5.71875,-34.443752
1763129361351,-0.7686943,7.8514495,5.7170515,-0.052839804,-0.0025961753,-0.049174614,0.45359147,0.023400577,-0.039728455,-3.1875002,-5.71875,-34.443752
1763129361351,-0.7686943,7.8514495,5.7170515,-0.05894845,-0.012217295,-0.030390523,0.45359147,0.023400577,-0.039728455,-3.1875002,-5.71875,-34.443752
1763129361357,-0.7686943,7.8514495,5.7170515,-0.05894845,-0.012217295,-0.030390523,0.45310864,0.023426184,-0.040469296,-3.1875002,-5.71875,-34.443752
1763129361358,-0.7686943,7.8514495,5.7170515,-0.05894845,-0.012217295,-0.030390523,0.45310864,0.023426184,-0.040469296,-1.2,-5.26875,-35.04375
1763129361372,-0.7686943,7.8514495,5.7170515,-0.07589995,0.022754714,-0.050396346,0.45310864,0.023426184,-0.040469296,-1.2,-5.26875,-35.04375
1763129361373,-0.62512493,7.8400836,5.736194,-0.07589995,0.022754714,-0.050396346,0.45310864,0.023426184,-0.040469296,-1.2,-5.26875,-35.04375
1763129361378,-0.62512493,7.8400836,5.736194,-0.07589995,0.022754714,-0.050396346,0.45243955,0.024057789,-0.04049709,-1.2,-5.26875,-35.04375
1763129361379,-0.62512493,7.8400836,5.736194,-0.07589995,0.022754714,-0.050396346,0.45243955,0.024057789,-0.04049709,0.41250002,-4.89375,-35.41875
1763129361393,-0.62512493,7.8400836,5.736194,-0.0876591,0.039858926,-0.083688475,0.45243955,0.024057789,-0.04049709,0.41250002,-4.89375,-35.41875
1763129361394,-0.71665037,7.78445,5.710471,-0.0876591,0.039858926,-0.083688475,0.45243955,0.024057789,-0.04049709,0.41250002,-4.89375,-35.41875
1763129361399,-0.71665037,7.78445,5.710471,-0.0876591,0.039858926,-0.083688475,0.45243955,0.024057789,-0.04049709,-1.21875,-6.8625,-33.5625
1763129361403,-0.71665037,7.78445,5.710471,-0.0876591,0.039858926,-0.083688475,0.45163944,0.024947166,-0.040264975,-1.21875,-6.8625,-33.5625
1763129361414,-0.71665037,7.78445,5.710471,-0.058795735,-0.0070249448,-0.0716239,0.45163944,0.024947166,-0.040264975,-1.21875,-6.8625,-33.5625
1763129361415,-0.8889336,7.673184,5.7523456,-0.058795735,-0.0070249448,-0.0716239,0.45163944,0.024947166,-0.040264975,-1.21875,-6.8625,-33.5625
1763129361419,-0.8889336,7.673184,5.7523456,-0.058795735,-0.0070249448,-0.0716239,0.4511295,0.024776345,-0.041586105,-1.21875,-6.8625,-33.5625
1763129361420,-0.8889336,7.673184,5.7523456,-0.058795735,-0.0070249448,-0.0716239,0.4511295,0.024776345,-0.041586105,-0.52500004,-7.0312505,-35.1375
1763129361434,-0.8889336,7.673184,5.7523456,-0.008857539,-0.019547673,-0.02443459,0.4511295,0.024776345,-0.041586105,-0.52500004,-7.0312505,-35.1375
1763129361435,-0.8679964,7.6348987,5.825327,-0.008857539,-0.019547673,-0.02443459,0.4511295,0.024776345,-0.041586105,-0.52500004,-7.0312505,-35.1375
1763129361437,-0.8679964,7.6348987,5.825327,-0.008857539,-0.019547673,-0.02443459,0.45092243,0.024894264,-0.04194007,-0.52500004,-7.0312505,-35.1375
1763129361438,-0.8679964,7.6348987,5.825327,-0.008857539,-0.019547673,-0.02443459,0.45092243,0.024894264,-0.04194007,-0.69375,-5.9625,-35.775
1763129361457,-0.8679964,7.6348987,5.825327,0.057574004,0.0048869182,-0.0027488915,0.45092243,0.024894264,-0.04194007,-0.69375,-5.9625,-35.775
1763129361459,-0.887139,7.683952,5.2193446,0.057574004,0.0048869182,-0.0027488915,0.45092243,0.024894264,-0.04194007,-0.69375,-5.9625,-35.775
1763129361459,-0.887139,7.683952,5.2193446,0.057574004,0.0048869182,-0.0027488915,0.45122808,0.024819411,-0.04247211,-0.69375,-5.9625,-35.775
1763129361460,-0.887139,7.683952,5.2193446,0.057574004,0.0048869182,-0.0027488915,0.45122808,0.024819411,-0.04247211,-0.76875,-7.0875,-34.725002
1763129361478,-0.887139,7.683952,5.2193446,0.037568185,-0.23777911,-0.014660755,0.45122808,0.024819411,-0.04247211,-0.76875,-7.0875,-34.725002
1763129361480,-0.887139,7.683952,5.2193446,0.037568185,-0.23777911,-0.014660755,0.45122808,0.024819411,-0.04247211,-1.9125,-6.5437503,-33.09375
1763129361481,-0.887139,7.683952,5.2193446,0.037568185,-0.23777911,-0.014660755,0.45202348,0.022731138,-0.044088393,-1.9125,-6.5437503,-33.09375
1763129361482,-1.032503,7.7383885,4.6935215,0.037568185,-0.23777911,-0.014660755,0.45202348,0.022731138,-0.044088393,-1.9125,-6.5437503,-33.09375
1763129361499,-1.032503,7.7383885,4.6935215,0.037568185,-0.23777911,-0.014660755,0.45178849,0.019911086,-0.046264064,-1.9125,-6.5437503,-33.09375
1763129361499,-1.032503,7.7383885,4.6935215,-0.1517999,-0.2875646,0.040775225,0.45178849,0.019911086,-0.046264064,-1.9125,-6.5437503,-33.09375
1763129361500,-0.82013994,7.6109705,5.235496,-0.1517999,-0.2875646,0.040775225,0.45178849,0.019911086,-0.046264064,-1.9125,-6.5437503,-33.09375
1763129361501,-0.82013994,7.6109705,5.235496,-0.1517999,-0.2875646,0.040775225,0.45178849,0.019911086,-0.046264064,-0.22500001,-5.0437503,-34.818752
1763129361518,-0.82013994,7.6109705,5.235496,-0.1517999,-0.2875646,0.040775225,0.45178849,0.019911086,-0.046264064,-0.6,-6.7125,-33.412502
1763129361520,-0.82013994,7.6109705,5.235496,-0.1517999,-0.2875646,0.040775225,0.44915402,0.017630475,-0.04807865,-0.6,-6.7125,-33.412502
1763129361521,-0.82013994,7.6109705,5.235496,-0.3329213,-0.21578798,0.023823727,0.44915402,0.017630475,-0.04807865,-0.6,-6.7125,-33.412502
1763129361522,-0.45942193,7.9393854,6.262615,-0.3329213,-0.21578798,0.023823727,0.44915402,0.017630475,-0.04807865,-0.6,-6.7125,-33.412502
1763129361538,-0.45942193,7.9393854,6.262615,-0.3329213,-0.21578798,0.023823727,0.44915402,0.017630475,-0.04807865,-1.2,-4.4625,-35.550003
1763129361540,-0.45942193,7.9393854,6.262615,-0.3356702,-0.011148282,-0.08093958,0.44915402,0.017630475,-0.04807865,-1.2,-4.4625,-35.550003
1763129361540,-0.45942193,7.9393854,6.262615,-0.3356702,-0.011148282,-0.08093958,0.44566667,0.01754974,-0.048720744,-1.2,-4.4625,-35.550003
1763129361541,-0.5808577,7.6031938,6.8255267,-0.3356702,-0.011148282,-0.08093958,0.44566667,0.01754974,-0.048720744,-1.2,-4.4625,-35.550003
1763129361565,-0.5808577,7.6031938,6.8255267,-0.3356702,-0.011148282,-0.08093958,0.44566667,0.01754974,-0.048720744,-2.53125,-6.5437503,-34.5
1763129361566,-1.1114662,7.6893353,6.4163537,-0.3356702,-0.011148282,-0.08093958,0.44566667,0.01754974,-0.048720744,-2.53125,-6.5437503,-34.5
1763129361567,-1.1114662,7.6893353,6.4163537,-0.3356702,-0.011148282,-0.08093958,0.44328085,0.017895397,-0.04985509,-2.53125,-6.5437503,-34.5
1763129361567,-1.1114662,7.6893353,6.4163537,-0.1178969,0.020005822,-0.11270455,0.44328085,0.017895397,-0.04985509,-2.53125,-6.5437503,-34.5
