timestamp,accX,accY,accZ,gyroX,gyroY,gyroZ,rotX,rotY,rotZ,magX,magY,magZ
1763129389557,-0.41635114,5.130212,8.165507,0.06459895,0.07819069,-0.048258316,0.28266904,-0.04447445,-0.20049599,-14.043751,0.65625,-27.225
1763129389563,-0.41635114,5.130212,8.165507,0.08689552,0.06383537,0.0061086477,0.28266904,-0.04447445,-0.20049599,-14.043751,0.65625,-27.225
1763129389563,-0.41635114,5.130212,8.165507,0.08689552,0.06383537,0.0061086477,0.28335872,-0.043892507,-0.20060869,-14.043751,0.65625,-27.225
1763129389564,-0.44985065,5.2049875,8.054241,0.08689552,0.06383537,0.0061086477,0.28335872,-0.043892507,-0.20060869,-14.043751,0.65625,-27.225
1763129389578,-0.44985065,5.2049875,8.054241,0.08689552,0.06383537,0.0061086477,0.28335872,-0.043892507,-0.20060869,-17.456251,-1.2375001,-24.862501
1763129389585,-0.44985065,5.2049875,8.054241,0.09376775,0.06582068,0.040011644,0.28335872,-0.043892507,-0.20060869,-17.456251,-1.2375001,-24.862501
1763129389585,-0.44985065,5.2049875,8.054241,0.09376775,0.06582068,0.040011644,0.2842904,-0.043400224,-0.200364,-17.456251,-1.2375001,-24.862501
1763129389585,-0.24227329,5.3539405,8.073383,0.09376775,0.06582068,0.040011644,0.2842904,-0.043400224,-0.200364,-17.456251,-1.2375001,-24.862501
1763129389599,-0.24227329,5.3539405,8.073383,0.09376775,0.06582068,0.040011644,0.2842904,-0.043400224,-0.200364,-17.8125,-4.3875003,-26.7
1763129389605,-0.24227329,5.3539405,8.073383,0.09392046,0.05742129,0.020158539,0.2842904,-0.043400224,-0.200364,-17.8125,-4.3875003,-26.7
1763129389605,0.041874398,5.538188,7.873583,0.09392046,0.05742129,0.020158539,0.2842904,-0.043400224,-0.200364,-17.8125,-4.3875003,-26.7
1763129389618,0.041874398,5.538188,7.873583,0.09392046,0.05742129,0.020158539,0.28532097,-0.043182645,-0.19976306,-17.8125,-4.3875003,-26.7
1763129389619,0.041874398,5.538188,7.873583,0.09392046,0.05742129,0.020158539,0.28532097,-0.043182645,-0.19976306,-15.187501,0.056250002,-28.63125
1763129389627,0.041874398,5.538188,7.873583,0.056352276,0.040622506,-0.03375028,0.28532097,-0.043182645,-0.19976306,-15.187501,0.056250002,-28.63125
1763129389627,-0.1160519,5.553143,7.711469,0.056352276,0.040622506,-0.03375028,0.28532097,-0.043182645,-0.19976306,-15.187501,0.056250002,-28.63125
1763129389637,-0.1160519,5.553143,7.711469,0.056352276,0.040622506,-0.03375028,0.2863129,-0.043227606,-0.19890141,-15.187501,0.056250002,-28.63125
1763129389637,-0.1160519,5.553143,7.711469,0.056352276,0.040622506,-0.03375028,0.2863129,-0.043227606,-0.19890141,-17.5125,-6.24375,-27.187502
1763129389648,-0.1160519,5.553143,7.711469,-0.0140498895,0.042760536,-0.04016436,0.2863129,-0.043227606,-0.19890141,-17.5125,-6.24375,-27.187502
1763129389648,-0.35593235,5.375476,7.7270226,-0.0140498895,0.042760536,-0.04016436,0.2863129,-0.043227606,-0.19890141,-17.5125,-6.24375,-27.187502
1763129389658,-0.35593235,5.375476,7.7270226,-0.0140498895,0.042760536,-0.04016436,0.2868195,-0.042917542,-0.19840121,-17.5125,-6.24375,-27.187502
1763129389659,-0.35593235,5.375476,7.7270226,-0.0140498895,0.042760536,-0.04016436,0.2868195,-0.042917542,-0.19840121,-12.88125,-1.6500001,-27.487501
1763129389669,-0.35593235,5.375476,7.7270226,-0.056810424,0.05864302,0.0042760535,0.2868195,-0.042917542,-0.19840121,-12.88125,-1.6500001,-27.487501
1763129389669,-0.29012975,5.3994045,7.9794655,-0.056810424,0.05864302,0.0042760535,0.2868195,-0.042917542,-0.19840121,-12.88125,-1.6500001,-27.487501
1763129389678,-0.29012975,5.3994045,7.9794655,-0.056810424,0.05864302,0.0042760535,0.2867194,-0.042220563,-0.19810297,-12.88125,-1.6500001,-27.487501
1763129389678,-0.29012975,5.3994045,7.9794655,-0.056810424,0.05864302,0.0042760535,0.2867194,-0.042220563,-0.19810297,-13.668751,-1.3687501,-30.056252
1763129389689,-0.29012975,5.3994045,7.9794655,-0.045051277,0.08949169,0.0151189035,0.2867194,-0.042220563,-0.19810297,-13.668751,-1.3687501,-30.056252
1763129389689,-0.10887343,5.535795,8.170293,-0.045051277,0.08949169,0.0151189035,0.2867194,-0.042220563,-0.19810297,-13.668751,-1.3687501,-30.056252
1763129389699,-0.10887343,5.535795,8.170293,-0.045051277,0.08949169,0.0151189035,0.2865781,-0.041362,-0.19750942,-13.668751,-1.3687501,-30.056252
1763129389703,-0.10887343,5.535795,8.170293,-0.045051277,0.08949169,0.0151189035,0.2865781,-0.041362,-0.19750942,-19.050001,-6.2812505,-26.268751
1763129389711,-0.10887343,5.535795,8.170293,-0.022907428,0.09758565,-0.01282816,0.2865781,-0.041362,-0.19750942,-19.050001,-6.2812505,-26.268751
1763129389713,-0.23150559,5.4352965,8.280363,-0.022907428,0.09758565,-0.01282816,0.2865781,-0.041362,-0.19750942,-19.050001,-6.2812505,-26.268751
1763129389717,-0.23150559,5.4352965,8.280363,-0.022907428,0.09758565,-0.01282816,0.28664976,-0.040610235,-0.19669393,-19.050001,-6.2812505,-26.268751
1763129389717,-0.23150559,5.4352965,8.280363,-0.022907428,0.09758565,-0.01282816,0.28664976,-0.040610235,-0.19669393,-13.725,-1.2,-28.1625
1763129389732,-0.23150559,5.4352965,8.280363,-0.0021380268,0.11270455,-0.018936807,0.28664976,-0.040610235,-0.19669393,-13.725,-1.2,-28.1625
1763129389733,-0.44506502,5.3090754,8.105687,-0.0021380268,0.11270455,-0.018936807,0.28664976,-0.040610235,-0.19669393,-13.725,-1.2,-28.1625
1763129389737,-0.44506502,5.3090754,8.105687,-0.0021380268,0.11270455,-0.018936807,0.28674257,-0.039602466,-0.19624992,-13.725,-1.2,-28.1625
1763129389737,-0.44506502,5.3090754,8.105687,-0.0021380268,0.11270455,-0.018936807,0.28674257,-0.039602466,-0.19624992,-19.837502,-2.5687501,-22.63125
1763129389753,-0.44506502,5.3090754,8.105687,-0.03573559,0.08781181,0.0024434591,0.28674257,-0.039602466,-0.19624992,-19.837502,-2.5687501,-22.63125
1763129389753,-0.63948184,5.2929235,8.028518,-0.03573559,0.08781181,0.0024434591,0.28674257,-0.039602466,-0.19624992,-19.837502,-2.5687501,-22.63125
1763129389757,-0.63948184,5.2929235,8.028518,-0.03573559,0.08781181,0.0024434591,0.28649482,-0.038604558,-0.19615337,-19.837502,-2.5687501,-22.63125
1763129389758,-0.63948184,5.2929235,8.028518,-0.03573559,0.08781181,0.0024434591,0.28649482,-0.038604558,-0.19615337,-17.081251,-5.025,-26.625002
1763129389773,-0.63948184,5.2929235,8.028518,-0.0754418,0.082924895,0.031154104,0.28649482,-0.038604558,-0.19615337,-17.081251,-5.025,-26.625002
1763129389774,-0.6412765,5.2259245,8.244471,-0.0754418,0.082924895,0.031154104,0.28649482,-0.038604558,-0.19615337,-17.081251,-5.025,-26.625002
1763129389778,-0.6412765,5.2259245,8.244471,-0.0754418,0.082924895,0.031154104,0.28595647,-0.037463635,-0.19617157,-17.081251,-5.025,-26.625002
1763129389779,-0.6412765,5.2259245,8.244471,-0.0754418,0.082924895,0.031154104,0.28595647,-0.037463635,-0.19617157,-13.500001,-1.8000001,-28.237501
1763129389794,-0.6412765,5.2259245,8.244471,-0.06139191,0.09086613,0.053145237,0.28595647,-0.037463635,-0.19617157,-13.500001,-1.8000001,-28.237501
1763129389795,-0.52522457,5.2642097,8.349754,-0.06139191,0.09086613,0.053145237,0.28595647,-0.037463635,-0.19617157,-13.500001,-1.8000001,-28.237501
1763129389797,-0.52522457,5.2642097,8.349754,-0.06139191,0.09086613,0.053145237,0.28529063,-0.036345802,-0.1960355,-13.500001,-1.8000001,-28.237501
1763129389798,-0.52522457,5.2642097,8.349754,-0.06139191,0.09086613,0.053145237,0.28529063,-0.036345802,-0.1960355,-15.150001,-1.7062501,-29.04375
1763129389816,-0.52522457,5.2642097,8.349754,-0.041844238,0.080634154,0.03970621,0.28529063,-0.036345802,-0.1960355,-15.150001,-1.7062501,-29.04375
1763129389817,-0.25842485,5.4687963,8.292327,-0.041844238,0.080634154,0.03970621,0.28529063,-0.036345802,-0.1960355,-15.150001,-1.7062501,-29.04375
1763129389818,-0.25842485,5.4687963,8.292327,-0.041844238,0.080634154,0.03970621,0.28474784,-0.035476483,-0.1957624,-15.150001,-1.7062501,-29.04375
1763129389819,-0.25842485,5.4687963,8.292327,-0.041844238,0.080634154,0.03970621,0.28474784,-0.035476483,-0.1957624,-8.75625,-0.43125,-35.68125
1763129389838,-0.25842485,5.4687963,8.292327,0.0042760535,0.028405212,-0.022754714,0.28474784,-0.035476483,-0.1957624,-8.75625,-0.43125,-35.68125
1763129389839,-0.25842485,5.4687963,8.292327,0.0042760535,0.028405212,-0.022754714,0.28474784,-0.035476483,-0.1957624,-9.5625,0.50625,-34.65
1763129389839,-0.25842485,5.4687963,8.292327,0.0042760535,0.028405212,-0.022754714,0.28484714,-0.035352807,-0.19544798,-9.5625,0.50625,-34.65
1763129389841,-0.4103691,5.3515477,8.344969,0.0042760535,0.028405212,-0.022754714,0.28484714,-0.035352807,-0.19544798,-9.5625,0.50625,-34.65
1763129389859,-0.4103691,5.3515477,8.344969,0.074830934,0.032986697,-0.053603385,0.28484714,-0.035352807,-0.19544798,-9.5625,0.50625,-34.65
1763129389860,-0.4103691,5.3515477,8.344969,0.074830934,0.032986697,-0.053603385,0.2854642,-0.035062563,-0.19584548,-9.5625,0.50625,-34.65
1763129389863,-0.4103691,5.3515477,8.344969,0.074830934,0.032986697,-0.053603385,0.2854642,-0.035062563,-0.19584548,-8.418751,1.25625,-34.2
1763129389864,-0.7112665,5.109873,8.138588,0.074830934,0.032986697,-0.053603385,0.2854642,-0.035062563,-0.19584548,-8.418751,1.25625,-34.2
1763129389877,-0.7112665,5.109873,8.138588,0.074830934,0.032986697,-0.053603385,0.2854642,-0.035062563,-0.19584548,-8.306251,0.63750005,-35.2125
1763129389878,-0.7112665,5.109873,8.138588,0.053450666,0.033444848,0.011606431,0.2854642,-0.035062563,-0.19584548,-8.306251,0.63750005,-35.2125
1763129389879,-0.7112665,5.109873,8.138588,0.053450666,0.033444848,0.011606431,0.28576878,-0.03457326,-0.19637644,-8.306251,0.63750005,-35.2125
1763129389881,-0.7752745,5.128417,7.8514495,0.053450666,0.033444848,0.011606431,0.28576878,-0.03457326,-0.19637644,-8.306251,0.63750005,-35.2125
1763129389897,-0.7752745,5.128417,7.8514495,0.053450666,0.033444848,0.011606431,0.28576878,-0.03457326,-0.19637644,-7.8375,1.7062501,-35.5125
1763129389900,-0.7752745,5.128417,7.8514495,0.026572619,0.0108428495,0.049327333,0.28576878,-0.03457326,-0.19637644,-7.8375,1.7062501,-35.5125
1763129389902,-0.7752745,5.128417,7.8514495,0.026572619,0.0108428495,0.049327333,0.28605178,-0.03430534,-0.19661953,-7.8375,1.7062501,-35.5125
1763129389903,-0.32662028,5.3772707,8.015956,0.026572619,0.0108428495,0.049327333,0.28605178,-0.03430534,-0.19661953,-7.8375,1.7062501,-35.5125
1763129389918,-0.32662028,5.3772707,8.015956,0.026572619,0.0108428495,0.049327333,0.28605178,-0.03430534,-0.19661953,-7.0687504,2.6625001,-36.768753
1763129389920,-0.32662028,5.3772707,8.015956,0.026572619,0.0108428495,0.049327333,0.2864079,-0.0342277,-0.19610997,-7.0687504,2.6625001,-36.768753
1763129389922,-0.32662028,5.3772707,8.015956,0.021380268,0.029779658,0.0030543238,0.2864079,-0.0342277,-0.19610997,-7.0687504,2.6625001,-36.768753
1763129389923,-0.26620153,5.482555,8.081161,0.021380268,0.029779658,0.0030543238,0.2864079,-0.0342277,-0.19610997,-7.0687504,2.6625001,-36.768753
1763129389938,-0.26620153,5.482555,8.081161,0.021380268,0.029779658,0.0030543238,0.2864079,-0.0342277,-0.19610997,-7.55625,1.4625001,-34.3125
1763129389942,-0.26620153,5.482555,8.081161,0.021380268,0.029779658,0.0030543238,0.2868323,-0.03436251,-0.19562903,-7.55625,1.4625001,-34.3125
1763129389943,-0.26620153,5.482555,8.081161,0.025809037,0.011759147,-0.01282816,0.2868323,-0.03436251,-0.19562903,-7.55625,1.4625001,-34.3125
1763129389944,-0.6089734,5.3904314,8.023732,0.025809037,0.011759147,-0.01282816,0.2868323,-0.03436251,-0.19562903,-7.55625,1.4625001,-34.3125
1763129389959,-0.6089734,5.3904314,8.023732,0.025809037,0.011759147,-0.01282816,0.2868323,-0.03436251,-0.19562903,-8.94375,-0.80625004,-35.643753
1763129389962,-0.6089734,5.3904314,8.023732,0.01282816,0.007177661,0.015882485,0.2868323,-0.03436251,-0.19562903,-8.94375,-0.80625004,-35.643753
1763129389963,-0.6089734,5.3904314,8.023732,0.01282816,0.007177661,0.015882485,0.28711307,-0.034214288,-0.19571306,-8.94375,-0.80625004,-35.643753
1763129389964,-0.56111693,5.3180485,8.086544,0.01282816,0.007177661,0.015882485,0.28711307,-0.034214288,-0.19571306,-8.94375,-0.80625004,-35.643753
1763129389977,-0.56111693,5.3180485,8.086544,0.01282816,0.007177661,0.015882485,0.28711307,-0.034214288,-0.19571306,-9.01875,-1.29375,-34.3125
1763129389984,-0.56111693,5.3180485,8.086544,0.0010690134,0.019089524,0.034666575,0.28711307,-0.034214288,-0.19571306,-9.01875,-1.29375,-34.3125
1763129389984,-0.56111693,5.3180485,8.086544,0.0010690134,0.019089524,0.034666575,0.28712207,-0.03402903,-0.19554874,-9.01875,-1.29375,-34.3125
1763129389986,-0.40378883,5.380262,8.157731,0.0010690134,0.019089524,0.034666575,0.28712207,-0.03402903,-0.19554874,-9.01875,-1.29375,-34.3125
1763129389997,-0.40378883,5.380262,8.157731,0.0010690134,0.019089524,0.034666575,0.28712207,-0.03402903,-0.19554874,-8.512501,0.26250002,-34.425003
1763129390004,-0.40378883,5.380262,8.157731,0.0010690134,0.019089524,0.034666575,0.28742847,-0.034135047,-0.19520122,-8.512501,0.26250002,-34.425003
1763129390005,-0.47258246,5.337191,8.212168,0.0010690134,0.019089524,0.034666575,0.28742847,-0.034135047,-0.19520122,-8.512501,0.26250002,-34.425003
1763129390006,-0.47258246,5.337191,8.212168,0.03573559,0.00962112,0.017562363,0.28742847,-0.034135047,-0.19520122,-8.512501,0.26250002,-34.425003
1763129390018,-0.47258246,5.337191,8.212168,0.03573559,0.00962112,0.017562363,0.28742847,-0.034135047,-0.19520122,-9.0,-0.63750005,-34.331253
1763129390026,-0.47258246,5.337191,8.212168,0.06658426,0.015424335,0.032223117,0.28742847,-0.034135047,-0.19520122,-9.0,-0.63750005,-34.331253
1763129390027,-0.5395815,5.272585,8.2014,0.06658426,0.015424335,0.032223117,0.28742847,-0.034135047,-0.19520122,-9.0,-0.63750005,-34.331253
1763129390038,-0.5395815,5.272585,8.2014,0.06658426,0.015424335,0.032223117,0.28793234,-0.034206785,-0.19490585,-9.0,-0.63750005,-34.331253
1763129390039,-0.5395815,5.272585,8.2014,0.06658426,0.015424335,0.032223117,0.28793234,-0.034206785,-0.19490585,-7.4062505,0.675,-35.568752
1763129390047,-0.5395815,5.272585,8.2014,0.060475614,0.04886918,0.056352276,0.28793234,-0.034206785,-0.19490585,-7.4062505,0.675,-35.568752
1763129390047,-0.5312066,5.2773705,8.084151,0.060475614,0.04886918,0.056352276,0.28793234,-0.034206785,-0.19490585,-7.4062505,0.675,-35.568752
1763129390059,-0.5312066,5.2773705,8.084151,0.060475614,0.04886918,0.056352276,0.28835866,-0.03393282,-0.19447087,-7.4062505,0.675,-35.568752
1763129390060,-0.5312066,5.2773705,8.084151,0.060475614,0.04886918,0.056352276,0.28835866,-0.03393282,-0.19447087,-8.962501,0.7875,-35.90625
1763129390068,-0.5312066,5.2773705,8.084151,0.040011644,0.055435978,0.07009673,0.28835866,-0.03393282,-0.19447087,-8.962501,0.7875,-35.90625
1763129390069,-0.51505506,5.3826547,8.03809,0.040011644,0.055435978,0.07009673,0.28835866,-0.03393282,-0.19447087,-8.962501,0.7875,-35.90625
1763129390077,-0.51505506,5.3826547,8.03809,0.040011644,0.055435978,0.07009673,0.2886972,-0.03360767,-0.19381519,-8.962501,0.7875,-35.90625
1763129390078,-0.51505506,5.3826547,8.03809,0.040011644,0.055435978,0.07009673,0.2886972,-0.03360767,-0.19381519,-8.325001,0.7875,-34.66875
1763129390088,-0.51505506,5.3826547,8.03809,0.037568185,0.045662142,0.05299252,0.2886972,-0.03360767,-0.19381519,-8.325001,0.7875,-34.66875
1763129390088,-0.40677986,5.4843497,8.09133,0.037568185,0.045662142,0.05299252,0.2886972,-0.03360767,-0.19381519,-8.325001,0.7875,-34.66875
1763129390100,-0.40677986,5.4843497,8.09133,0.037568185,0.045662142,0.05299252,0.2891693,-0.033353683,-0.19321935,-8.325001,0.7875,-34.66875
1763129390101,-0.40677986,5.4843497,8.09133,0.037568185,0.045662142,0.05299252,0.2891693,-0.033353683,-0.19321935,-9.637501,-0.63750005,-34.068752
1763129390110,-0.40677986,5.4843497,8.09133,0.058032155,0.03527744,0.020005822,0.2891693,-0.033353683,-0.19321935,-9.637501,-0.63750005,-34.068752
1763129390111,-0.43848476,5.4143596,8.203793,0.058032155,0.03527744,0.020005822,0.2891693,-0.033353683,-0.19321935,-9.637501,-0.63750005,-34.068752
1763129390118,-0.43848476,5.4143596,8.203793,0.058032155,0.03527744,0.020005822,0.2891693,-0.033353683,-0.19321935,-7.74375,-0.35625002,-35.25
1763129390119,-0.43848476,5.4143596,8.203793,0.058032155,0.03527744,0.020005822,0.28987306,-0.033274774,-0.1926749,-7.74375,-0.35625002,-35.25
1763129390130,-0.43848476,5.4143596,8.203793,0.08933897,0.07773254,0.017104214,0.28987306,-0.033274774,-0.1926749,-7.74375,-0.35625002,-35.25
1763129390131,-0.4863412,5.3970113,8.136793,0.08933897,0.07773254,0.017104214,0.28987306,-0.033274774,-0.1926749,-7.74375,-0.35625002,-35.25
1763129390137,-0.4863412,5.3970113,8.136793,0.08933897,0.07773254,0.017104214,0.29074508,-0.032798372,-0.19218354,-7.74375,-0.35625002,-35.25
1763129390138,-0.4863412,5.3970113,8.136793,0.08933897,0.07773254,0.017104214,0.29074508,-0.032798372,-0.19218354,-8.15625,-0.28125,-34.331253
1763129390152,-0.4863412,5.3970113,8.136793,0.06139191,0.10338886,0.02565632,0.29074508,-0.032798372,-0.19218354,-8.15625,-0.28125,-34.331253
1763129390152,-0.47856453,5.4813585,7.917252,0.06139191,0.10338886,0.02565632,0.29074508,-0.032798372,-0.19218354,-8.15625,-0.28125,-34.331253
1763129390157,-0.47856453,5.4813585,7.917252,0.06139191,0.10338886,0.02565632,0.29142156,-0.031999536,-0.19161345,-8.15625,-0.28125,-34.331253
1763129390157,-0.47856453,5.4813585,7.917252,0.06139191,0.10338886,0.02565632,0.29142156,-0.031999536,-0.19161345,-7.425,0.69375,-33.768753
1763129390172,-0.47856453,5.4813585,7.917252,0.04367683,0.07696896,0.04046979,0.29142156,-0.031999536,-0.19161345,-7.425,0.69375,-33.768753
1763129390173,-0.44626144,5.5579286,8.008179,0.04367683,0.07696896,0.04046979,0.29142156,-0.031999536,-0.19161345,-7.425,0.69375,-33.768753
1763129390178,-0.44626144,5.5579286,8.008179,0.04367683,0.07696896,0.04046979,0.29216495,-0.031493608,-0.19080791,-7.425,0.69375,-33.768753
1763129390179,-0.44626144,5.5579286,8.008179,0.04367683,0.07696896,0.04046979,0.29216495,-0.031493608,-0.19080791,-14.775001,-3.075,-30.993752
1763129390194,-0.44626144,5.5579286,8.008179,0.06017018,0.046883874,0.007788526,0.29216495,-0.031493608,-0.19080791,-14.775001,-3.075,-30.993752
1763129390198,-0.360718,5.5926247,8.036295,0.06017018,0.046883874,0.007788526,0.29216495,-0.031493608,-0.19080791,-14.775001,-3.075,-30.993752
1763129390199,-0.360718,5.5926247,8.036295,0.06017018,0.046883874,0.007788526,0.29300475,-0.031263195,-0.19031422,-14.775001,-3.075,-30.993752
1763129390199,-0.360718,5.5926247,8.036295,0.06017018,0.046883874,0.007788526,0.29300475,-0.031263195,-0.19031422,-7.8375,0.90000004,-35.006252
1763129390214,-0.360718,5.5926247,8.036295,0.07315106,0.035430156,-0.025198173,0.29300475,-0.031263195,-0.19031422,-7.8375,0.90000004,-35.006252
1763129390215,-0.42711884,5.519644,8.099107,0.07315106,0.035430156,-0.025198173,0.29300475,-0.031263195,-0.19031422,-7.8375,0.90000004,-35.006252
1763129390218,-0.42711884,5.519644,8.099107,0.07315106,0.035430156,-0.025198173,0.29392737,-0.03116888,-0.18997155,-7.8375,0.90000004,-35.006252
1763129390219,-0.42711884,5.519644,8.099107,0.07315106,0.035430156,-0.025198173,0.29392737,-0.03116888,-0.18997155,-8.475,0.91875005,-34.59375
1763129390235,-0.42711884,5.519644,8.099107,0.07467822,0.057268575,-0.029932374,0.29392737,-0.03116888,-0.18997155,-8.475,0.91875005,-34.59375
1763129390236,-0.53300124,5.4424753,8.07458,0.07467822,0.057268575,-0.029932374,0.29392737,-0.03116888,-0.18997155,-8.475,0.91875005,-34.59375
1763129390237,-0.53300124,5.4424753,8.07458,0.07467822,0.057268575,-0.029932374,0.29392737,-0.03116888,-0.18997155,-8.75625,-0.58125,-33.975002
1763129390238,-0.53300124,5.4424753,8.07458,0.07467822,0.057268575,-0.029932374,0.294736,-0.03077848,-0.1898316,-8.75625,-0.58125,-33.975002
1763129390258,-0.53300124,5.4424753,8.07458,0.07467822,0.057268575,-0.029932374,0.2956231,-0.030257931,-0.1897881,-8.75625,-0.58125,-33.975002
1763129390259,-0.53300124,5.4424753,8.07458,0.09010255,0.06704241,-0.014660755,0.2956231,-0.030257931,-0.1897881,-8.75625,-0.58125,-33.975002
1763129390260,-0.53300124,5.4424753,8.07458,0.09010255,0.06704241,-0.014660755,0.2956231,-0.030257931,-0.1897881,-8.53125,-0.375,-33.80625
1763129390260,-0.5587241,5.4699926,8.033902,0.09010255,0.06704241,-0.014660755,0.2956231,-0.030257931,-0.1897881,-8.53125,-0.375,-33.80625
1763129390278,-0.5587241,5.4699926,8.033902,0.09010255,0.06704241,-0.014660755,0.2968727,-0.029836753,-0.18975188,-8.53125,-0.375,-33.80625
1763129390279,-0.5587241,5.4699926,8.033902,0.12370012,0.062613636,-0.013744458,0.2968727,-0.029836753,-0.18975188,-8.53125,-0.375,-33.80625
1763129390280,-0.55513483,5.5046883,8.066803,0.12370012,0.062613636,-0.013744458,0.2968727,-0.029836753,-0.18975188,-8.53125,-0.375,-33.80625
1763129390281,-0.55513483,5.5046883,8.066803,0.12370012,0.062613636,-0.013744458,0.2968727,-0.029836753,-0.18975188,-5.49375,2.4,-37.125
1763129390299,-0.5599205,5.5447683,8.028518,0.12370012,0.062613636,-0.013744458,0.2968727,-0.029836753,-0.18975188,-5.49375,2.4,-37.125
1763129390300,-0.5599205,5.5447683,8.028518,0.14477496,0.08414663,-0.015882485,0.2968727,-0.029836753,-0.18975188,-5.49375,2.4,-37.125
1763129390301,-0.5599205,5.5447683,8.028518,0.14477496,0.08414663,-0.015882485,0.2983363,-0.02926216,-0.1896279,-5.49375,2.4,-37.125
1763129390303,-0.5599205,5.5447683,8.028518,0.14477496,0.08414663,-0.015882485,0.2983363,-0.02926216,-0.1896279,-7.6312504,0.46875003,-34.987503
1763129390317,-0.5599205,5.5447683,8.028518,0.14477496,0.08414663,-0.015882485,0.2983363,-0.02926216,-0.1896279,-5.7000003,2.025,-36.3375
1763129390320,-0.5599205,5.5447683,8.028518,0.15485422,0.08093958,-0.012217295,0.2983363,-0.02926216,-0.1896279,-5.7000003,2.025,-36.3375
1763129390321,-0.5599205,5.5447683,8.028518,0.15485422,0.08093958,-0.012217295,0.29992896,-0.02876159,-0.1894324,-5.7000003,2.025,-36.3375
1763129390322,-0.59342,5.5686965,7.908877,0.15485422,0.08093958,-0.012217295,0.29992896,-0.02876159,-0.1894324,-5.7000003,2.025,-36.3375
1763129390337,-0.59342,5.5686965,7.908877,0.15485422,0.08093958,-0.012217295,0.29992896,-0.02876159,-0.1894324,-6.2250004,1.2750001,-35.381252
1763129390343,-0.59342,5.5686965,7.908877,0.15485422,0.08093958,-0.012217295,0.301598,-0.028508138,-0.1894257,-6.2250004,1.2750001,-35.381252
1763129390344,-0.57547385,5.602196,7.8741813,0.15485422,0.08093958,-0.012217295,0.301598,-0.028508138,-0.1894257,-6.2250004,1.2750001,-35.381252
1763129390345,-0.57547385,5.602196,7.8741813,0.15821397,0.051159926,-0.020616686,0.301598,-0.028508138,-0.1894257,-6.2250004,1.2750001,-35.381252
1763129390358,-0.57547385,5.602196,7.8741813,0.15821397,0.051159926,-0.020616686,0.301598,-0.028508138,-0.1894257,-6.8437505,1.125,-35.831253
1763129390362,-0.57547385,5.602196,7.8741813,0.15821397,0.051159926,-0.020616686,0.3029379,-0.028093042,-0.18940574,-6.8437505,1.125,-35.831253
1763129390363,-0.6334998,5.563911,7.818548,0.15821397,0.051159926,-0.020616686,0.3029379,-0.028093042,-0.18940574,-6.8437505,1.125,-35.831253
1763129390364,-0.6334998,5.563911,7.818548,0.11957678,0.06017018,-0.03008509,0.3029379,-0.028093042,-0.18940574,-6.8437505,1.125,-35.831253
1763129390379,-0.6334998,5.563911,7.818548,0.11957678,0.06017018,-0.03008509,0.3029379,-0.028093042,-0.18940574,-6.80625,-2.23125,-34.93125
1763129390385,-0.6334998,5.563911,7.818548,0.11957678,0.06017018,-0.03008509,0.30389053,-0.027537348,-0.18930052,-6.80625,-2.23125,-34.93125
1763129390386,-0.7190432,5.5657053,7.778468,0.11957678,0.06017018,-0.03008509,0.30389053,-0.027537348,-0.18930052,-6.80625,-2.23125,-34.93125
1763129390387,-0.7190432,5.5657053,7.778468,0.08078687,0.067653276,-0.00962112,0.30389053,-0.027537348,-0.18930052,-6.80625,-2.23125,-34.93125
1763129390397,-0.7190432,5.5657053,7.778468,0.08078687,0.067653276,-0.00962112,0.30389053,-0.027537348,-0.18930052,-5.4187503,0.1875,-34.256252
1763129390403,-0.7190432,5.5657053,7.778468,0.08078687,0.067653276,-0.00962112,0.3047693,-0.027139686,-0.18934226,-5.4187503,0.1875,-34.256252
1763129390404,-0.66699934,5.645865,7.8628154,0.08078687,0.067653276,-0.00962112,0.3047693,-0.027139686,-0.18934226,-5.4187503,0.1875,-34.256252
1763129390405,-0.66699934,5.645865,7.8628154,0.07467822,0.045203995,1.527162E-4,0.3047693,-0.027139686,-0.18934226,-5.4187503,0.1875,-34.256252
1763129390417,-0.66699934,5.645865,7.8628154,0.07467822,0.045203995,1.527162E-4,0.3047693,-0.027139686,-0.18934226,-7.275,-0.09375,-36.393753
1763129390424,-0.66699934,5.645865,7.8628154,0.065667965,0.043982264,-0.014202606,0.3047693,-0.027139686,-0.18934226,-7.275,-0.09375,-36.393753
1763129390425,-0.66699934,5.645865,7.8628154,0.065667965,0.043982264,-0.014202606,0.30554786,-0.026764207,-0.18936937,-7.275,-0.09375,-36.393753
1763129390426,-0.6364908,5.656633,7.8167534,0.065667965,0.043982264,-0.014202606,0.30554786,-0.026764207,-0.18936937,-7.275,-0.09375,-36.393753
1763129390438,-0.6364908,5.656633,7.8167534,0.065667965,0.043982264,-0.014202606,0.30554786,-0.026764207,-0.18936937,-7.5937505,-1.29375,-35.41875
1763129390445,-0.6364908,5.656633,7.8167534,0.055283263,0.024281874,-0.012064579,0.30554786,-0.026764207,-0.18936937,-7.5937505,-1.29375,-35.41875
1763129390446,-0.6305088,5.690132,7.832307,0.055283263,0.024281874,-0.012064579,0.30554786,-0.026764207,-0.18936937,-7.5937505,-1.29375,-35.41875
1763129390458,-0.6305088,5.690132,7.832307,0.055283263,0.024281874,-0.012064579,0.30621514,-0.026606772,-0.1893432,-7.5937505,-1.29375,-35.41875
1763129390459,-0.6305088,5.690132,7.832307,0.055283263,0.024281874,-0.012064579,0.30621514,-0.026606772,-0.1893432,-8.15625,-0.28125,-34.03125
1763129390466,-0.6305088,5.690132,7.832307,0.041233372,0.011453714,-0.018173227,0.30621514,-0.026606772,-0.1893432,-8.15625,-0.28125,-34.03125
1763129390467,-0.5808577,5.7397833,7.893324,0.041233372,0.011453714,-0.018173227,0.30621514,-0.026606772,-0.1893432,-8.15625,-0.28125,-34.03125
1763129390477,-0.5808577,5.7397833,7.893324,0.041233372,0.011453714,-0.018173227,0.30673102,-0.026538493,-0.18938796,-8.15625,-0.28125,-34.03125
1763129390478,-0.5808577,5.7397833,7.893324,0.041233372,0.011453714,-0.018173227,0.30673102,-0.026538493,-0.18938796,-6.6000004,-0.5625,-32.8875
1763129390487,-0.5808577,5.7397833,7.893324,0.021074835,0.045203995,-0.03008509,0.30673102,-0.026538493,-0.18938796,-6.6000004,-0.5625,-32.8875
1763129390488,-0.63828546,5.6745787,7.845467,0.021074835,0.045203995,-0.03008509,0.30673102,-0.026538493,-0.18938796,-6.6000004,-0.5625,-32.8875
1763129390497,-0.63828546,5.6745787,7.845467,0.021074835,0.045203995,-0.03008509,0.30710286,-0.02612925,-0.18930106,-6.6000004,-0.5625,-32.8875
1763129390499,-0.63828546,5.6745787,7.845467,0.021074835,0.045203995,-0.03008509,0.30710286,-0.02612925,-0.18930106,-7.65,0.61875004,-35.625
1763129390509,-0.63828546,5.6745787,7.845467,0.021838415,0.023976443,-0.02687805,0.30710286,-0.02612925,-0.18930106,-7.65,0.61875004,-35.625
1763129390510,-0.6735796,5.736792,7.834101,0.021838415,0.023976443,-0.02687805,0.30710286,-0.02612925,-0.18930106,-7.65,0.61875004,-35.625
1763129390518,-0.6735796,5.736792,7.834101,0.021838415,0.023976443,-0.02687805,0.3074022,-0.025877755,-0.18940791,-7.65,0.61875004,-35.625
1763129390519,-0.6735796,5.736792,7.834101,0.021838415,0.023976443,-0.02687805,0.3074022,-0.025877755,-0.18940791,-7.8750005,-1.9875001,-34.10625
1763129390530,-0.6735796,5.736792,7.834101,0.032833982,0.010079269,-0.03252855,0.3074022,-0.025877755,-0.18940791,-7.8750005,-1.9875001,-34.10625
1763129390530,-0.6011967,5.7284174,7.993822,0.032833982,0.010079269,-0.03252855,0.3074022,-0.025877755,-0.18940791,-7.8750005,-1.9875001,-34.10625
1763129390539,-0.6011967,5.7284174,7.993822,0.032833982,0.010079269,-0.03252855,0.30787107,-0.025739614,-0.18963376,-7.8750005,-1.9875001,-34.10625
1763129390540,-0.6011967,5.7284174,7.993822,0.032833982,0.010079269,-0.03252855,0.30787107,-0.025739614,-0.18963376,-5.68125,-0.52500004,-35.04375
1763129390551,-0.6011967,5.7284174,7.993822,0.054061532,0.06459895,-0.042302385,0.30787107,-0.025739614,-0.18963376,-5.68125,-0.52500004,-35.04375
1763129390552,-0.6257231,5.667999,7.9555373,0.054061532,0.06459895,-0.042302385,0.30787107,-0.025739614,-0.18963376,-5.68125,-0.52500004,-35.04375
1763129390559,-0.6257231,5.667999,7.9555373,0.054061532,0.06459895,-0.042302385,0.30845007,-0.02517227,-0.18965176,-5.68125,-0.52500004,-35.04375
1763129390560,-0.6257231,5.667999,7.9555373,0.054061532,0.06459895,-0.042302385,0.30845007,-0.02517227,-0.18965176,-6.24375,-0.16875,-35.006252
1763129390571,-0.6257231,5.667999,7.9555373,0.04657844,0.05864302,-0.040622506,0.30845007,-0.02517227,-0.18965176,-6.24375,-0.16875,-35.006252
1763129390573,-0.7429714,5.7487564,7.6923265,0.04657844,0.05864302,-0.040622506,0.30845007,-0.02517227,-0.18965176,-6.24375,-0.16875,-35.006252
1763129390578,-0.7429714,5.7487564,7.6923265,0.04657844,0.05864302,-0.040622506,0.30889073,-0.02463201,-0.18974347,-6.24375,-0.16875,-35.006252
1763129390579,-0.7429714,5.7487564,7.6923265,0.04657844,0.05864302,-0.040622506,0.30889073,-0.02463201,-0.18974347,-6.7500005,-1.7437501,-35.193752
1763129390592,-0.7429714,5.7487564,7.6923265,3.054324E-4,0.024281874,-0.032986697,0.30889073,-0.02463201,-0.18974347,-6.7500005,-1.7437501,-35.193752
1763129390594,-0.79142606,5.7248282,7.6749787,3.054324E-4,0.024281874,-0.032986697,0.30889073,-0.02463201,-0.18974347,-6.7500005,-1.7437501,-35.193752
1763129390598,-0.79142606,5.7248282,7.6749787,3.054324E-4,0.024281874,-0.032986697,0.30919912,-0.024247935,-0.18997216,-6.7500005,-1.7437501,-35.193752
1763129390600,-0.79142606,5.7248282,7.6749787,3.054324E-4,0.024281874,-0.032986697,0.30919912,-0.024247935,-0.18997216,-5.53125,0.95625,-36.0
1763129390613,-0.79142606,5.7248282,7.6749787,-0.030695954,-0.0012217296,-0.02565632,0.30919912,-0.024247935,-0.18997216,-5.53125,0.95625,-36.0
1763129390615,-0.80877405,5.6410794,7.77787,-0.030695954,-0.0012217296,-0.02565632,0.30919912,-0.024247935,-0.18997216,-5.53125,0.95625,-36.0
1763129390619,-0.80877405,5.6410794,7.77787,-0.030695954,-0.0012217296,-0.02565632,0.30915052,-0.024026105,-0.19032948,-5.53125,0.95625,-36.0
1763129390620,-0.80877405,5.6410794,7.77787,-0.030695954,-0.0012217296,-0.02565632,0.30915052,-0.024026105,-0.19032948,-6.4500003,0.112500004,-33.91875
1763129390634,-0.80877405,5.6410794,7.77787,-0.032833982,-0.020311253,-0.014508039,0.30915052,-0.024026105,-0.19032948,-6.4500003,0.112500004,-33.91875
1763129390635,-0.77407813,5.6297135,7.923234,-0.032833982,-0.020311253,-0.014508039,0.30915052,-0.024026105,-0.19032948,-6.4500003,0.112500004,-33.91875
1763129390638,-0.77407813,5.6297135,7.923234,-0.032833982,-0.020311253,-0.014508039,0.30883986,-0.024001526,-0.19077492,-6.4500003,0.112500004,-33.91875
1763129390639,-0.77407813,5.6297135,7.923234,-0.032833982,-0.020311253,-0.014508039,0.30883986,-0.024001526,-0.19077492,-7.4062505,-1.725,-35.23125
1763129390655,-0.77407813,5.6297135,7.923234,-0.019394957,0.006872229,-0.018325943,0.30883986,-0.024001526,-0.19077492,-7.4062505,-1.725,-35.23125
1763129390656,-0.72442704,5.619544,8.020741,-0.019394957,0.006872229,-0.018325943,0.30883986,-0.024001526,-0.19077492,-7.4062505,-1.725,-35.23125
1763129390658,-0.72442704,5.619544,8.020741,-0.019394957,0.006872229,-0.018325943,0.30883986,-0.024001526,-0.19077492,-5.83125,0.54375005,-36.43125
1763129390659,-0.72442704,5.619544,8.020741,-0.019394957,0.006872229,-0.018325943,0.30855638,-0.023771353,-0.19113389,-5.83125,0.54375005,-36.43125
1763129390678,-0.88354975,5.5686965,7.899904,-0.019394957,0.006872229,-0.018325943,0.30855638,-0.023771353,-0.19113389,-5.83125,0.54375005,-36.43125
1763129390679,-0.88354975,5.5686965,7.899904,-0.0033597562,0.041996952,-0.018631376,0.30855638,-0.023771353,-0.19113389,-5.83125,0.54375005,-36.43125
1763129390680,-0.88354975,5.5686965,7.899904,-0.0033597562,0.041996952,-0.018631376,0.30838352,-0.023293255,-0.19128239,-5.83125,0.54375005,-36.43125
1763129390682,-0.88354975,5.5686965,7.899904,-0.0033597562,0.041996952,-0.018631376,0.30838352,-0.023293255,-0.19128239,-6.6000004,-2.025,-34.7625
1763129390699,-0.88354975,5.5686965,7.899904,-0.0033597562,0.041996952,-0.018631376,0.30828962,-0.022776466,-0.19150956,-6.6000004,-2.025,-34.7625
1763129390701,-0.88354975,5.5686965,7.899904,-0.0035124724,0.038179047,0.009010255,0.30828962,-0.022776466,-0.19150956,-6.6000004,-2.025,-34.7625
1763129390702,-0.88354975,5.5686965,7.899904,-0.0035124724,0.038179047,0.009010255,0.30828962,-0.022776466,-0.19150956,-6.3187504,-0.50625,-34.78125
1763129390704,-0.8009974,5.660222,7.792825,-0.0035124724,0.038179047,0.009010255,0.30828962,-0.022776466,-0.19150956,-6.3187504,-0.50625,-34.78125
1763129390718,-0.8009974,5.660222,7.792825,9.162972E-4,0.02367101,0.011606431,0.30828962,-0.022776466,-0.19150956,-6.3187504,-0.50625,-34.78125
1763129390719,-0.8009974,5.660222,7.792825,9.162972E-4,0.02367101,0.011606431,0.3084151,-0.022516262,-0.1914408,-6.3187504,-0.50625,-34.78125
1763129390721,-0.64008003,5.7379885,7.945966,9.162972E-4,0.02367101,0.011606431,0.3084151,-0.022516262,-0.1914408,-6.3187504,-0.50625,-34.78125
1763129390722,-0.64008003,5.7379885,7.945966,9.162972E-4,0.02367101,0.011606431,0.3084151,-0.022516262,-0.1914408,-6.3187504,-0.50625,-34.78125
1763129390738,-0.64008003,5.7379885,7.945966,9.162972E-4,0.02367101,0.011606431,0.3084151,-0.022516262,-0.1914408,-6.6000004,-0.26250002,-36.15
1763129390740,-0.64008003,5.7379885,7.945966,0.018631376,0.043982264,-0.010995566,0.3084151,-0.022516262,-0.1914408,-6.6000004,-0.26250002,-36.15
1763129390742,-0.64008003,5.7379885,7.945966,0.018631376,0.043982264,-0.010995566,0.30866387,-0.022207806,-0.19113898,-6.6000004,-0.26250002,-36.15
1763129390743,-0.6759724,5.7601223,8.043473,0.018631376,0.043982264,-0.010995566,0.30866387,-0.022207806,-0.19113898,-6.6000004,-0.26250002,-36.15
1763129390759,-0.6759724,5.7601223,8.043473,0.018631376,0.043982264,-0.010995566,0.30866387,-0.022207806,-0.19113898,-6.2625003,-0.82500005,-36.037502
1763129390760,-0.6759724,5.7601223,8.043473,0.018631376,0.043982264,-0.010995566,0.30922037,-0.021560628,-0.19074765,-6.2625003,-0.82500005,-36.037502
1763129390762,-0.6759724,5.7601223,8.043473,0.049938194,0.08414663,-0.00763581,0.30922037,-0.021560628,-0.19074765,-6.2625003,-0.82500005,-36.037502
1763129390763,-0.6939186,5.645267,8.033304,0.049938194,0.08414663,-0.00763581,0.30922037,-0.021560628,-0.19074765,-6.2625003,-0.82500005,-36.037502
1763129390778,-0.6939186,5.645267,8.033304,0.049938194,0.08414663,-0.00763581,0.30922037,-0.021560628,-0.19074765,-6.0375004,0.0375,-35.15625
1763129390782,-0.6939186,5.645267,8.033304,0.15363249,0.11560616,-0.019394957,0.30922037,-0.021560628,-0.19074765,-6.0375004,0.0375,-35.15625
1763129390783,-0.6939186,5.645267,8.033304,0.15363249,0.11560616,-0.019394957,0.3106656,-0.020761734,-0.19045784,-6.0375004,0.0375,-35.15625
1763129390784,-1.1162517,5.5573306,7.015756,0.15363249,0.11560616,-0.019394957,0.3106656,-0.020761734,-0.19045784,-6.0375004,0.0375,-35.15625
1763129390800,-1.1162517,5.5573306,7.015756,0.15363249,0.11560616,-0.019394957,0.3106656,-0.020761734,-0.19045784,-9.1125,-2.2875001,-34.6875
1763129390802,-1.1162517,5.5573306,7.015756,0.12232567,-0.11285727,-0.04016436,0.3106656,-0.020761734,-0.19045784,-9.1125,-2.2875001,-34.6875
1763129390802,-1.1162517,5.5573306,7.015756,0.12232567,-0.11285727,-0.04016436,0.31230468,-0.021581328,-0.19184159,-9.1125,-2.2875001,-34.6875
1763129390803,-0.89013004,5.818148,7.48116,0.12232567,-0.11285727,-0.04016436,0.31230468,-0.021581328,-0.19184159,-9.1125,-2.2875001,-34.6875
1763129390818,-0.89013004,5.818148,7.48116,0.12232567,-0.11285727,-0.04016436,0.31230468,-0.021581328,-0.19184159,-6.525,-0.88125,-34.29375
1763129390824,-0.89013004,5.818148,7.48116,-0.12568542,-0.01924224,0.013133593,0.31230468,-0.021581328,-0.19184159,-6.525,-0.88125,-34.29375
1763129390825,-0.89013004,5.818148,7.48116,-0.12568542,-0.01924224,0.013133593,0.3115484,-0.021442508,-0.19188139,-6.525,-0.88125,-34.29375
1763129390826,-0.6269195,5.866005,8.005188,-0.12568542,-0.01924224,0.013133593,0.3115484,-0.021442508,-0.19188139,-6.525,-0.88125,-34.29375
1763129390837,-0.6269195,5.866005,8.005188,-0.12568542,-0.01924224,0.013133593,0.3115484,-0.021442508,-0.19188139,-7.18125,-0.71250004,-35.287502
1763129390844,-0.6269195,5.866005,8.005188,-0.26480988,0.18448116,6.108648E-4,0.3115484,-0.021442508,-0.19188139,-7.18125,-0.71250004,-35.287502
1763129390844,-0.6269195,5.866005,8.005188,-0.26480988,0.18448116,6.108648E-4,0.3093936,-0.019333696,-0.1908841,-7.18125,-0.71250004,-35.287502
1763129390845,-0.7573284,5.541777,8.958728,-0.26480988,0.18448116,6.108648E-4,0.3093936,-0.019333696,-0.1908841,-7.18125,-0.71250004,-35.287502
1763129390858,-0.7573284,5.541777,8.958728,-0.26480988,0.18448116,6.108648E-4,0.3093936,-0.019333696,-0.1908841,-7.9875,-1.21875,-35.4
1763129390869,-0.7573284,5.541777,8.958728,-0.026725333,0.3827068,-0.04703659,0.3093936,-0.019333696,-0.1908841,-7.9875,-1.21875,-35.4
1763129390870,-1.3369896,5.108078,9.046664,-0.026725333,0.3827068,-0.04703659,0.3093936,-0.019333696,-0.1908841,-7.9875,-1.21875,-35.4
1763129390888,-1.3369896,5.108078,9.046664,-0.026725333,0.3827068,-0.04703659,0.30864465,-0.01553222,-0.1903319,-7.9875,-1.21875,-35.4
1763129390889,-1.3369896,5.108078,9.046664,-0.026725333,0.3827068,-0.04703659,0.30864465,-0.01553222,-0.1903319,-5.45625,0.3375,-34.443752
1763129390889,-1.3369896,5.108078,9.046664,0.27870706,0.087506376,0.05742129,0.30864465,-0.01553222,-0.1903319,-5.45625,0.3375,-34.443752
1763129390890,-1.2574283,5.85763,7.3860455,0.27870706,0.087506376,0.05742129,0.30864465,-0.01553222,-0.1903319,-5.45625,0.3375,-34.443752
