timestamp,accX,accY,accZ,gyroX,gyroY,gyroZ,rotX,rotY,rotZ,magX,magY,magZ
1763129366493,-1.1946167,7.1880393,4.176672,-0.36468628,-0.61254466,-0.15989386,0.43767247,-0.01887182,-0.083766274,-3.2812502,-5.1000004,-34.03125
1763129366493,-0.7399804,7.0989065,4.467998,-0.36468628,-0.61254466,-0.15989386,0.43767247,-0.01887182,-0.083766274,-3.2812502,-5.1000004,-34.03125
1763129366498,-0.7399804,7.0989065,4.467998,-0.36468628,-0.61254466,-0.15989386,0.43402117,-0.023394195,-0.08826483,-3.2812502,-5.1000004,-34.03125
1763129366498,-0.7399804,7.0989065,4.467998,-0.36468628,-0.61254466,-0.15989386,0.43402117,-0.023394195,-0.08826483,-7.51875,-6.05625,-31.087502
1763129366514,-0.7399804,7.0989065,4.467998,-0.66355187,-0.6638573,0.0012217296,0.43402117,-0.023394195,-0.08826483,-7.51875,-6.05625,-31.087502
1763129366515,-0.17826529,7.3585277,5.5836515,-0.66355187,-0.6638573,0.0012217296,0.43402117,-0.023394195,-0.08826483,-7.51875,-6.05625,-31.087502
1763129366517,-0.17826529,7.3585277,5.5836515,-0.66355187,-0.6638573,0.0012217296,0.42739564,-0.02890594,-0.0914409,-7.51875,-6.05625,-31.087502
1763129366517,-0.17826529,7.3585277,5.5836515,-0.66355187,-0.6638573,0.0012217296,0.42739564,-0.02890594,-0.0914409,-6.2250004,-2.8875,-32.775
1763129366535,0.17228323,7.353742,6.7208405,-0.66355187,-0.6638573,0.0012217296,0.42739564,-0.02890594,-0.0914409,-6.2250004,-2.8875,-32.775
1763129366535,0.17228323,7.353742,6.7208405,-0.799622,-0.4847212,0.004123337,0.42739564,-0.02890594,-0.0914409,-6.2250004,-2.8875,-32.775
1763129366537,0.17228323,7.353742,6.7208405,-0.799622,-0.4847212,0.004123337,0.4194764,-0.03277423,-0.09388665,-6.2250004,-2.8875,-32.775
1763129366537,0.17228323,7.353742,6.7208405,-0.799622,-0.4847212,0.004123337,0.4194764,-0.03277423,-0.09388665,-8.043751,-6.675,-32.1375
1763129366557,0.17228323,7.353742,6.7208405,-0.799622,-0.4847212,0.004123337,0.41327432,-0.03469736,-0.09626649,-8.043751,-6.675,-32.1375
1763129366559,0.17228323,7.353742,6.7208405,-0.799622,-0.4847212,0.004123337,0.41327432,-0.03469736,-0.09626649,-6.7312503,-3.7875001,-30.862501
1763129366560,0.17228323,7.353742,6.7208405,-0.6185006,-0.30802858,-0.09682207,0.41327432,-0.03469736,-0.09626649,-6.7312503,-3.7875001,-30.862501
1763129366561,0.27158538,7.373483,7.2825556,-0.6185006,-0.30802858,-0.09682207,0.41327432,-0.03469736,-0.09626649,-6.7312503,-3.7875001,-30.862501
1763129366578,0.27158538,7.373483,7.2825556,-0.3349066,-0.2357938,-0.1754709,0.41327432,-0.03469736,-0.09626649,-6.7312503,-3.7875001,-30.862501
1763129366579,0.27158538,7.373483,7.2825556,-0.3349066,-0.2357938,-0.1754709,0.40977156,-0.035891626,-0.098959155,-6.7312503,-3.7875001,-30.862501
1763129366580,0.27158538,7.373483,7.2825556,-0.3349066,-0.2357938,-0.1754709,0.40977156,-0.035891626,-0.098959155,-5.68125,-3.73125,-34.050003
1763129366581,0.20877378,7.373483,7.094121,-0.3349066,-0.2357938,-0.1754709,0.40977156,-0.035891626,-0.098959155,-5.68125,-3.73125,-34.050003
1763129366598,0.20877378,7.373483,7.094121,-0.14813471,-0.251829,-0.1782198,0.40977156,-0.035891626,-0.098959155,-5.68125,-3.73125,-34.050003
1763129366599,0.20877378,7.373483,7.094121,-0.14813471,-0.251829,-0.1782198,0.40806356,-0.037412196,-0.10168996,-5.68125,-3.73125,-34.050003
1763129366599,-0.046660043,7.329814,6.8853474,-0.14813471,-0.251829,-0.1782198,0.40806356,-0.037412196,-0.10168996,-5.68125,-3.73125,-34.050003
1763129366600,-0.046660043,7.329814,6.8853474,-0.14813471,-0.251829,-0.1782198,0.40806356,-0.037412196,-0.10168996,-5.90625,-3.9375002,-34.2
1763129366617,-0.046660043,7.329814,6.8853474,-0.14813471,-0.251829,-0.1782198,0.40806356,-0.037412196,-0.10168996,-7.8750005,-5.34375,-32.4375
1763129366620,-0.046660043,7.329814,6.8853474,-0.10491603,-0.24083345,-0.16493349,0.40806356,-0.037412196,-0.10168996,-7.8750005,-5.34375,-32.4375
1763129366621,-0.046660043,7.329814,6.8853474,-0.10491603,-0.24083345,-0.16493349,0.40680882,-0.038897503,-0.10431527,-7.8750005,-5.34375,-32.4375
1763129366622,-0.2727818,7.376474,6.727421,-0.10491603,-0.24083345,-0.16493349,0.40680882,-0.038897503,-0.10431527,-7.8750005,-5.34375,-32.4375
1763129366637,-0.2727818,7.376474,6.727421,-0.10491603,-0.24083345,-0.16493349,0.40680882,-0.038897503,-0.10431527,-7.7250004,-6.1312504,-34.0125
1763129366641,-0.2727818,7.376474,6.727421,-0.15913028,-0.24755295,-0.21930045,0.40680882,-0.038897503,-0.10431527,-7.7250004,-6.1312504,-34.0125
1763129366642,-0.2727818,7.376474,6.727421,-0.15913028,-0.24755295,-0.21930045,0.40509498,-0.04012609,-0.10757365,-7.7250004,-6.1312504,-34.0125
1763129366643,-0.07956135,7.615756,6.348757,-0.15913028,-0.24755295,-0.21930045,0.40509498,-0.04012609,-0.10757365,-7.7250004,-6.1312504,-34.0125
1763129366658,-0.07956135,7.615756,6.348757,-0.15913028,-0.24755295,-0.21930045,0.40509498,-0.04012609,-0.10757365,-4.8187504,-3.525,-34.59375
1763129366661,-0.07956135,7.615756,6.348757,-0.32238388,-0.3347539,-0.41416633,0.40509498,-0.04012609,-0.10757365,-4.8187504,-3.525,-34.59375
1763129366662,-0.07956135,7.615756,6.348757,-0.32238388,-0.3347539,-0.41416633,0.40191707,-0.041196648,-0.11301288,-4.8187504,-3.525,-34.59375
1763129366664,0.1274178,7.850253,6.0251274,-0.32238388,-0.3347539,-0.41416633,0.40191707,-0.041196648,-0.11301288,-4.8187504,-3.525,-34.59375
1763129366678,0.1274178,7.850253,6.0251274,-0.32238388,-0.3347539,-0.41416633,0.40191707,-0.041196648,-0.11301288,-5.4,-3.825,-34.537502
1763129366682,0.1274178,7.850253,6.0251274,-0.49907652,-0.4639518,-0.6013964,0.40191707,-0.041196648,-0.11301288,-5.4,-3.825,-34.537502
1763129366683,0.1274178,7.850253,6.0251274,-0.49907652,-0.4639518,-0.6013964,0.39707175,-0.04252651,-0.12072647,-5.4,-3.825,-34.537502
1763129366684,-0.010767702,7.6510506,6.2291155,-0.49907652,-0.4639518,-0.6013964,0.39707175,-0.04252651,-0.12072647,-5.4,-3.825,-34.537502
1763129366698,-0.010767702,7.6510506,6.2291155,-0.49907652,-0.4639518,-0.6013964,0.39707175,-0.04252651,-0.12072647,-5.83125,-2.79375,-33.73125
1763129366703,-0.010767702,7.6510506,6.2291155,-0.56138474,-0.45769045,-0.6458368,0.39707175,-0.04252651,-0.12072647,-5.83125,-2.79375,-33.73125
1763129366703,-0.026919255,7.2149587,7.3728848,-0.56138474,-0.45769045,-0.6458368,0.39707175,-0.04252651,-0.12072647,-5.83125,-2.79375,-33.73125
1763129366704,-0.026919255,7.2149587,7.3728848,-0.56138474,-0.45769045,-0.6458368,0.39158475,-0.043513622,-0.12890264,-5.83125,-2.79375,-33.73125
1763129366717,-0.026919255,7.2149587,7.3728848,-0.56138474,-0.45769045,-0.6458368,0.39158475,-0.043513622,-0.12890264,-8.15625,-4.2937503,-33.5625
1763129366724,-0.046660043,6.811768,7.9076805,-0.56138474,-0.45769045,-0.6458368,0.39158475,-0.043513622,-0.12890264,-8.15625,-4.2937503,-33.5625
1763129366725,-0.046660043,6.811768,7.9076805,-0.40378162,-0.37797257,-0.6375901,0.39158475,-0.043513622,-0.12890264,-8.15625,-4.2937503,-33.5625
1763129366725,-0.046660043,6.811768,7.9076805,-0.40378162,-0.37797257,-0.6375901,0.3874234,-0.043988373,-0.13666685,-8.15625,-4.2937503,-33.5625
1763129366738,-0.046660043,6.811768,7.9076805,-0.40378162,-0.37797257,-0.6375901,0.3874234,-0.043988373,-0.13666685,-7.55625,-3.99375,-33.61875
1763129366745,-0.046660043,6.811768,7.9076805,-0.107359484,-0.34544402,-0.6185006,0.3874234,-0.043988373,-0.13666685,-7.55625,-3.99375,-33.61875
1763129366745,-0.43429732,6.59761,7.515258,-0.107359484,-0.34544402,-0.6185006,0.3874234,-0.043988373,-0.13666685,-7.55625,-3.99375,-33.61875
1763129366758,-0.43429732,6.59761,7.515258,-0.107359484,-0.34544402,-0.6185006,0.38595352,-0.044657055,-0.14402337,-7.55625,-3.99375,-33.61875
1763129366759,-0.43429732,6.59761,7.515258,-0.107359484,-0.34544402,-0.6185006,0.38595352,-0.044657055,-0.14402337,-11.38125,-7.425,-31.10625
1763129366766,-0.43429732,6.59761,7.515258,0.14263692,-0.41462448,-0.5422952,0.38595352,-0.044657055,-0.14402337,-11.38125,-7.425,-31.10625
1763129366767,-0.7118647,6.5694947,6.8482585,0.14263692,-0.41462448,-0.5422952,0.38595352,-0.044657055,-0.14402337,-11.38125,-7.425,-31.10625
1763129366777,-0.7118647,6.5694947,6.8482585,0.14263692,-0.41462448,-0.5422952,0.38674375,-0.04662173,-0.15092978,-11.38125,-7.425,-31.10625
1763129366778,-0.7118647,6.5694947,6.8482585,0.14263692,-0.41462448,-0.5422952,0.38674375,-0.04662173,-0.15092978,-7.4062505,-4.93125,-33.9375
1763129366787,-0.7118647,6.5694947,6.8482585,0.15424335,-0.49006626,-0.4479166,0.38674375,-0.04662173,-0.15092978,-7.4062505,-4.93125,-33.9375
1763129366788,-0.6329016,6.6999035,6.202196,0.15424335,-0.49006626,-0.4479166,0.38674375,-0.04662173,-0.15092978,-7.4062505,-4.93125,-33.9375
1763129366798,-0.6329016,6.6999035,6.202196,0.15424335,-0.49006626,-0.4479166,0.3875709,-0.049666088,-0.15728882,-7.4062505,-4.93125,-33.9375
1763129366798,-0.6329016,6.6999035,6.202196,0.15424335,-0.49006626,-0.4479166,0.3875709,-0.049666088,-0.15728882,-4.70625,-2.5500002,-34.987503
1763129366808,-0.6329016,6.6999035,6.202196,-0.09422589,-0.4741838,-0.3113883,0.3875709,-0.049666088,-0.15728882,-4.70625,-2.5500002,-34.987503
1763129366809,-0.5246264,6.708278,6.189634,-0.09422589,-0.4741838,-0.3113883,0.3875709,-0.049666088,-0.15728882,-4.70625,-2.5500002,-34.987503
1763129366818,-0.5246264,6.708278,6.189634,-0.09422589,-0.4741838,-0.3113883,0.38610715,-0.052708067,-0.16232896,-4.70625,-2.5500002,-34.987503
1763129366819,-0.5246264,6.708278,6.189634,-0.09422589,-0.4741838,-0.3113883,0.38610715,-0.052708067,-0.16232896,-5.625,-2.5875,-33.581253
1763129366832,-0.5246264,6.708278,6.189634,-0.40989026,-0.3251328,-0.1197295,0.38610715,-0.052708067,-0.16232896,-5.625,-2.5875,-33.581253
1763129366833,-0.34576288,6.6185474,6.419345,-0.40989026,-0.3251328,-0.1197295,0.38610715,-0.052708067,-0.16232896,-5.625,-2.5875,-33.581253
1763129366839,-0.34576288,6.6185474,6.419345,-0.40989026,-0.3251328,-0.1197295,0.38179505,-0.05457815,-0.16507334,-5.625,-2.5875,-33.581253
1763129366840,-0.34576288,6.6185474,6.419345,-0.40989026,-0.3251328,-0.1197295,0.38179505,-0.05457815,-0.16507334,-5.4750004,-3.5062501,-33.43125
1763129366850,-0.34576288,6.6185474,6.419345,-0.5720749,-0.2159407,0.0048869182,0.38179505,-0.05457815,-0.16507334,-5.4750004,-3.5062501,-33.43125
1763129366851,-0.20578274,6.5694947,6.687341,-0.5720749,-0.2159407,0.0048869182,0.38179505,-0.05457815,-0.16507334,-5.4750004,-3.5062501,-33.43125
1763129366857,-0.20578274,6.5694947,6.687341,-0.5720749,-0.2159407,0.0048869182,0.38179505,-0.05457815,-0.16507334,-6.58125,-4.5750003,-33.487503
1763129366858,-0.20578274,6.5694947,6.687341,-0.5720749,-0.2159407,0.0048869182,0.3760094,-0.055644523,-0.16623974,-6.58125,-4.5750003,-33.487503
1763129366871,-0.20578274,6.5694947,6.687341,-0.47311476,-0.25014913,0.054672398,0.3760094,-0.055644523,-0.16623974,-6.58125,-4.5750003,-33.487503
1763129366872,-0.2219343,6.567102,7.238887,-0.47311476,-0.25014913,0.054672398,0.3760094,-0.055644523,-0.16623974,-6.58125,-4.5750003,-33.487503
1763129366877,-0.2219343,6.567102,7.238887,-0.47311476,-0.25014913,0.054672398,0.37103248,-0.057419676,-0.16697924,-6.58125,-4.5750003,-33.487503
1763129366878,-0.2219343,6.567102,7.238887,-0.47311476,-0.25014913,0.054672398,0.37103248,-0.057419676,-0.16697924,-7.8,-2.4562502,-35.15625
1763129366892,-0.2219343,6.567102,7.238887,-0.29794928,-0.17592905,0.06520981,0.37103248,-0.057419676,-0.16697924,-7.8,-2.4562502,-35.15625
1763129366892,-0.012562319,6.4719872,7.513463,-0.29794928,-0.17592905,0.06520981,0.37103248,-0.057419676,-0.16697924,-7.8,-2.4562502,-35.15625
1763129366898,-0.012562319,6.4719872,7.513463,-0.29794928,-0.17592905,0.06520981,0.36777028,-0.05882285,-0.16727003,-7.8,-2.4562502,-35.15625
1763129366899,-0.012562319,6.4719872,7.513463,-0.29794928,-0.17592905,0.06520981,0.36777028,-0.05882285,-0.16727003,-8.53125,-3.5812502,-33.412502
1763129366913,-0.012562319,6.4719872,7.513463,-0.19975278,0.015882485,0.09498947,0.36777028,-0.05882285,-0.16727003,-8.53125,-3.5812502,-33.412502
1763129366914,0.08315059,6.4905314,7.4769726,-0.19975278,0.015882485,0.09498947,0.36777028,-0.05882285,-0.16727003,-8.53125,-3.5812502,-33.412502
1763129366918,0.08315059,6.4905314,7.4769726,-0.19975278,0.015882485,0.09498947,0.3657065,-0.05870124,-0.16642906,-8.53125,-3.5812502,-33.412502
1763129366919,0.08315059,6.4905314,7.4769726,-0.19975278,0.015882485,0.09498947,0.3657065,-0.05870124,-0.16642906,-7.93125,-3.2812502,-34.21875
1763129366934,0.08315059,6.4905314,7.4769726,-0.12278382,0.18448116,0.12583815,0.3657065,-0.05870124,-0.16642906,-7.93125,-3.2812502,-34.21875
1763129366935,0.015553347,6.553343,7.45783,-0.12278382,0.18448116,0.12583815,0.3657065,-0.05870124,-0.16642906,-7.93125,-3.2812502,-34.21875
1763129366938,0.015553347,6.553343,7.45783,-0.12278382,0.18448116,0.12583815,0.3646672,-0.057229713,-0.1645544,-7.93125,-3.2812502,-34.21875
1763129366940,0.015553347,6.553343,7.45783,-0.12278382,0.18448116,0.12583815,0.3646672,-0.057229713,-0.1645544,-7.5750003,-3.99375,-32.86875
1763129366955,0.015553347,6.553343,7.45783,-0.026267186,0.2357938,0.1621846,0.3646672,-0.057229713,-0.1645544,-7.5750003,-3.99375,-32.86875
1763129366955,-0.24227329,6.5497537,7.4787674,-0.026267186,0.2357938,0.1621846,0.3646672,-0.057229713,-0.1645544,-7.5750003,-3.99375,-32.86875
1763129366957,-0.24227329,6.5497537,7.4787674,-0.026267186,0.2357938,0.1621846,0.36463588,-0.055563617,-0.16208561,-7.5750003,-3.99375,-32.86875
1763129366959,-0.24227329,6.5497537,7.4787674,-0.026267186,0.2357938,0.1621846,0.36463588,-0.055563617,-0.16208561,-9.450001,-4.125,-33.693752
1763129366977,-0.24227329,6.5497537,7.4787674,-0.026267186,0.2357938,0.1621846,0.36510777,-0.05379831,-0.15891601,-9.450001,-4.125,-33.693752
1763129366978,-0.24227329,6.5497537,7.4787674,0.023060145,0.2761109,0.22479823,0.36510777,-0.05379831,-0.15891601,-9.450001,-4.125,-33.693752
1763129366979,-0.24227329,6.5497537,7.4787674,0.023060145,0.2761109,0.22479823,0.36510777,-0.05379831,-0.15891601,-11.4375,-5.6625004,-29.625002
1763129366980,-0.20697916,6.6167526,7.2807612,0.023060145,0.2761109,0.22479823,0.36510777,-0.05379831,-0.15891601,-11.4375,-5.6625004,-29.625002
1763129366998,-0.20697916,6.6167526,7.2807612,0.023060145,0.2761109,0.22479823,0.36535305,-0.05158098,-0.15538797,-11.4375,-5.6625004,-29.625002
1763129366999,-0.20697916,6.6167526,7.2807612,-0.011911863,0.32421649,0.24083345,0.36535305,-0.05158098,-0.15538797,-11.4375,-5.6625004,-29.625002
1763129367001,-0.20578274,6.6711893,7.1688967,-0.011911863,0.32421649,0.24083345,0.36535305,-0.05158098,-0.15538797,-11.4375,-5.6625004,-29.625002
1763129367002,-0.20578274,6.6711893,7.1688967,-0.011911863,0.32421649,0.24083345,0.36535305,-0.05158098,-0.15538797,-7.0687504,-3.075,-33.2625
1763129367018,-0.25543383,6.5832534,7.076773,-0.011911863,0.32421649,0.24083345,0.36535305,-0.05158098,-0.15538797,-7.0687504,-3.075,-33.2625
1763129367019,-0.25543383,6.5832534,7.076773,-0.011911863,0.32421649,0.24083345,0.3649015,-0.04890517,-0.15169454,-7.0687504,-3.075,-33.2625
1763129367020,-0.25543383,6.5832534,7.076773,-0.09269873,0.3604102,0.24572036,0.3649015,-0.04890517,-0.15169454,-7.0687504,-3.075,-33.2625
1763129367021,-0.25543383,6.5832534,7.076773,-0.09269873,0.3604102,0.24572036,0.3649015,-0.04890517,-0.15169454,-6.01875,-2.3625002,-34.518753
1763129367037,-0.25543383,6.5832534,7.076773,-0.09269873,0.3604102,0.24572036,0.3649015,-0.04890517,-0.15169454,-7.89375,-3.43125,-34.03125
1763129367040,-0.25543383,6.5832534,7.076773,-0.15286891,0.37751442,0.2921461,0.3649015,-0.04890517,-0.15169454,-7.89375,-3.43125,-34.03125
1763129367041,-0.25543383,6.5832534,7.076773,-0.15286891,0.37751442,0.2921461,0.36387348,-0.04614038,-0.14752555,-7.89375,-3.43125,-34.03125
1763129367043,-0.36251262,6.5294147,7.138388,-0.15286891,0.37751442,0.2921461,0.36387348,-0.04614038,-0.14752555,-7.89375,-3.43125,-34.03125
1763129367057,-0.36251262,6.5294147,7.138388,-0.15286891,0.37751442,0.2921461,0.36387348,-0.04614038,-0.14752555,-6.5625005,-2.1750002,-34.575
1763129367060,-0.36251262,6.5294147,7.138388,-0.19486587,0.37675086,0.33902994,0.36387348,-0.04614038,-0.14752555,-6.5625005,-2.1750002,-34.575
1763129367061,-0.3912265,6.5198436,7.262815,-0.19486587,0.37675086,0.33902994,0.36387348,-0.04614038,-0.14752555,-6.5625005,-2.1750002,-34.575
1763129367062,-0.3912265,6.5198436,7.262815,-0.19486587,0.37675086,0.33902994,0.36239746,-0.043481387,-0.14296027,-6.5625005,-2.1750002,-34.575
1763129367078,-0.3912265,6.5198436,7.262815,-0.19486587,0.37675086,0.33902994,0.36239746,-0.043481387,-0.14296027,-6.3562503,-1.95,-33.956253
1763129367081,-0.33140594,6.535397,7.3028946,-0.19486587,0.37675086,0.33902994,0.36239746,-0.043481387,-0.14296027,-6.3562503,-1.95,-33.956253
1763129367085,-0.33140594,6.535397,7.3028946,-0.18875721,0.37873617,0.36911505,0.36239746,-0.043481387,-0.14296027,-6.3562503,-1.95,-33.956253
1763129367086,-0.33140594,6.535397,7.3028946,-0.18875721,0.37873617,0.36911505,0.3609447,-0.040921904,-0.13810183,-6.3562503,-1.95,-33.956253
1763129367098,-0.33140594,6.535397,7.3028946,-0.18875721,0.37873617,0.36911505,0.3609447,-0.040921904,-0.13810183,-6.1687503,-1.5937501,-33.693752
1763129367102,-0.33140594,6.535397,7.3028946,-0.18875721,0.37873617,0.36911505,0.36015925,-0.038724348,-0.13350713,-6.1687503,-1.5937501,-33.693752
1763129367103,-0.33140594,6.535397,7.3028946,-0.11453715,0.34529132,0.3488038,0.36015925,-0.038724348,-0.13350713,-6.1687503,-1.5937501,-33.693752
1763129367104,-0.16390835,6.695118,7.2933235,-0.11453715,0.34529132,0.3488038,0.36015925,-0.038724348,-0.13350713,-6.1687503,-1.5937501,-33.693752
1763129367117,-0.16390835,6.695118,7.2933235,-0.11453715,0.34529132,0.3488038,0.36015925,-0.038724348,-0.13350713,-8.306251,-3.2250001,-34.65
1763129367123,-0.16390835,6.695118,7.2933235,-0.11453715,0.34529132,0.3488038,0.36020038,-0.036963303,-0.13007753,-8.306251,-3.2250001,-34.65
1763129367124,-0.16390835,6.695118,7.2933235,-0.02535089,0.27488914,0.24449863,0.36020038,-0.036963303,-0.13007753,-8.306251,-3.2250001,-34.65
1763129367125,0.035294134,6.923034,7.0953174,-0.02535089,0.27488914,0.24449863,0.36020038,-0.036963303,-0.13007753,-8.306251,-3.2250001,-34.65
1763129367137,0.035294134,6.923034,7.0953174,-0.02535089,0.27488914,0.24449863,0.36020038,-0.036963303,-0.13007753,-6.0,-2.53125,-35.0625
1763129367144,0.035294134,6.923034,7.0953174,0.029016078,0.18921536,0.12064579,0.36020038,-0.036963303,-0.13007753,-6.0,-2.53125,-35.0625
1763129367145,0.035294134,6.923034,7.0953174,0.029016078,0.18921536,0.12064579,0.36076066,-0.03566933,-0.12805283,-6.0,-2.53125,-35.0625
1763129367147,-0.036490545,6.860821,6.8578296,0.029016078,0.18921536,0.12064579,0.36076066,-0.03566933,-0.12805283,-6.0,-2.53125,-35.0625
1763129367158,-0.036490545,6.860821,6.8578296,0.029016078,0.18921536,0.12064579,0.36076066,-0.03566933,-0.12805283,-6.20625,-2.0812502,-34.03125
1763129367165,-0.036490545,6.860821,6.8578296,0.048716467,0.073761925,0.042760536,0.36076066,-0.03566933,-0.12805283,-6.20625,-2.0812502,-34.03125
1763129367166,-0.10827523,6.7429743,6.674779,0.048716467,0.073761925,0.042760536,0.36076066,-0.03566933,-0.12805283,-6.20625,-2.0812502,-34.03125
1763129367178,-0.10827523,6.7429743,6.674779,0.048716467,0.073761925,0.042760536,0.36141172,-0.035214357,-0.12722896,-6.20625,-2.0812502,-34.03125
1763129367179,-0.10827523,6.7429743,6.674779,0.048716467,0.073761925,0.042760536,0.36141172,-0.035214357,-0.12722896,-4.3875003,-0.69375,-33.7125
1763129367186,-0.10827523,6.7429743,6.674779,-0.0027488915,0.025961753,0.016340632,0.36141172,-0.035214357,-0.12722896,-4.3875003,-0.69375,-33.7125
1763129367187,-0.13399807,6.6652074,6.7172513,-0.0027488915,0.025961753,0.016340632,0.36141172,-0.035214357,-0.12722896,-4.3875003,-0.69375,-33.7125
1763129367197,-0.13399807,6.6652074,6.7172513,-0.0027488915,0.025961753,0.016340632,0.36151892,-0.0350439,-0.12688483,-4.3875003,-0.69375,-33.7125
1763129367198,-0.13399807,6.6652074,6.7172513,-0.0027488915,0.025961753,0.016340632,0.36151892,-0.0350439,-0.12688483,-4.4625,-0.09375,-36.16875
1763129367207,-0.13399807,6.6652074,6.7172513,-0.06780599,0.019547673,0.02443459,0.36151892,-0.0350439,-0.12688483,-4.4625,-0.09375,-36.16875
1763129367207,-0.11006984,6.647261,6.859026,-0.06780599,0.019547673,0.02443459,0.36151892,-0.0350439,-0.12688483,-4.4625,-0.09375,-36.16875
1763129367217,-0.11006984,6.647261,6.859026,-0.06780599,0.019547673,0.02443459,0.36151892,-0.0350439,-0.12688483,-6.8812504,-2.5687501,-34.706253
1763129367228,-0.11006984,6.647261,6.859026,-0.08170316,-0.0073303776,0.0012217296,0.36151892,-0.0350439,-0.12688483,-6.8812504,-2.5687501,-34.706253
1763129367229,-0.064008005,6.74776,7.0145597,-0.08170316,-0.0073303776,0.0012217296,0.36151892,-0.0350439,-0.12688483,-6.8812504,-2.5687501,-34.706253
1763129367238,-0.064008005,6.74776,7.0145597,-0.08170316,-0.0073303776,0.0012217296,0.36146873,-0.03497953,-0.12611346,-6.8812504,-2.5687501,-34.706253
1763129367239,-0.064008005,6.74776,7.0145597,-0.08170316,-0.0073303776,0.0012217296,0.36108497,-0.035087243,-0.12568432,-6.8812504,-2.5687501,-34.706253
1763129367240,-0.064008005,6.74776,7.0145597,-0.08170316,-0.0073303776,0.0012217296,0.36108497,-0.035087243,-0.12568432,-5.2875004,-0.6,-34.4625
1763129367248,-0.064008005,6.74776,7.0145597,-0.07910699,-0.012675445,-0.03008509,0.36108497,-0.035087243,-0.12568432,-5.2875004,-0.6,-34.4625
1763129367249,-0.15672988,6.59103,7.2233334,-0.07910699,-0.012675445,-0.03008509,0.36108497,-0.035087243,-0.12568432,-5.2875004,-0.6,-34.4625
1763129367258,-0.15672988,6.59103,7.2233334,-0.07910699,-0.012675445,-0.03008509,0.36068633,-0.035177458,-0.12548159,-5.2875004,-0.6,-34.4625
1763129367259,-0.15672988,6.59103,7.2233334,-0.07910699,-0.012675445,-0.03008509,0.36068633,-0.035177458,-0.12548159,-4.275,-1.3312501,-35.175003
1763129367270,-0.15672988,6.59103,7.2233334,-0.048258316,-0.030695954,-0.018325943,0.36068633,-0.035177458,-0.12548159,-4.275,-1.3312501,-35.175003
1763129367271,-0.29671,6.524031,7.368697,-0.048258316,-0.030695954,-0.018325943,0.36068633,-0.035177458,-0.12548159,-4.275,-1.3312501,-35.175003
1763129367277,-0.29671,6.524031,7.368697,-0.048258316,-0.030695954,-0.018325943,0.3601621,-0.03542759,-0.12559034,-4.275,-1.3312501,-35.175003
1763129367278,-0.29671,6.524031,7.368697,-0.048258316,-0.030695954,-0.018325943,0.3601621,-0.03542759,-0.12559034,-5.3625,-1.725,-34.78125
1763129367291,-0.29671,6.524031,7.368697,0.0058032153,-0.03619374,-0.017715078,0.3601621,-0.03542759,-0.12559034,-5.3625,-1.725,-34.78125
1763129367291,-0.2650051,6.519245,7.3663044,0.0058032153,-0.03619374,-0.017715078,0.3601621,-0.03542759,-0.12559034,-5.3625,-1.725,-34.78125
1763129367298,-0.2650051,6.519245,7.3663044,0.0058032153,-0.03619374,-0.017715078,0.35993546,-0.03566443,-0.12610254,-5.3625,-1.725,-34.78125
1763129367298,-0.2650051,6.519245,7.3663044,0.0058032153,-0.03619374,-0.017715078,0.35993546,-0.03566443,-0.12610254,-3.54375,0.45000002,-35.1375
1763129367314,-0.2650051,6.519245,7.3663044,-0.002290743,-0.012370012,-0.038179047,0.35993546,-0.03566443,-0.12610254,-3.54375,0.45000002,-35.1375
1763129367315,-0.38165522,6.4480586,7.318448,-0.002290743,-0.012370012,-0.038179047,0.35993546,-0.03566443,-0.12610254,-3.54375,0.45000002,-35.1375
1763129367317,-0.38165522,6.4480586,7.318448,-0.002290743,-0.012370012,-0.038179047,0.35967156,-0.03561785,-0.12664151,-3.54375,0.45000002,-35.1375
1763129367318,-0.38165522,6.4480586,7.318448,-0.002290743,-0.012370012,-0.038179047,0.35967156,-0.03561785,-0.12664151,-8.6625,-2.6625001,-35.0625
1763129367332,-0.38165522,6.4480586,7.318448,-0.025809037,0.021227552,-0.0015271619,0.35967156,-0.03561785,-0.12664151,-8.6625,-2.6625001,-35.0625
1763129367334,-0.36729828,6.3924255,7.2969127,-0.025809037,0.021227552,-0.0015271619,0.35967156,-0.03561785,-0.12664151,-8.6625,-2.6625001,-35.0625
1763129367338,-0.36729828,6.3924255,7.2969127,-0.025809037,0.021227552,-0.0015271619,0.35921142,-0.035243534,-0.12697405,-8.6625,-2.6625001,-35.0625
1763129367339,-0.36729828,6.3924255,7.2969127,-0.025809037,0.021227552,-0.0015271619,0.35921142,-0.035243534,-0.12697405,-7.7812505,-2.7562501,-32.34375
1763129367353,-0.36729828,6.3924255,7.2969127,-0.03848448,0.046273008,-0.0051923506,0.35921142,-0.035243534,-0.12697405,-7.7812505,-2.7562501,-32.34375
1763129367354,-0.24047868,6.5342007,7.3136625,-0.03848448,0.046273008,-0.0051923506,0.35921142,-0.035243534,-0.12697405,-7.7812505,-2.7562501,-32.34375
1763129367358,-0.24047868,6.5342007,7.3136625,-0.03848448,0.046273008,-0.0051923506,0.35863695,-0.03461976,-0.12720363,-7.7812505,-2.7562501,-32.34375
1763129367358,-0.24047868,6.5342007,7.3136625,-0.03848448,0.046273008,-0.0051923506,0.35863695,-0.03461976,-0.12720363,-6.61875,-2.0062501,-32.9625
1763129367374,-0.24047868,6.5342007,7.3136625,-0.03329213,0.054825112,-0.018325943,0.35863695,-0.03461976,-0.12720363,-6.61875,-2.0062501,-32.9625
1763129367375,-0.41515473,6.384051,7.2329044,-0.03329213,0.054825112,-0.018325943,0.35863695,-0.03461976,-0.12720363,-6.61875,-2.0062501,-32.9625
1763129367377,-0.41515473,6.384051,7.2329044,-0.03329213,0.054825112,-0.018325943,0.35863695,-0.03461976,-0.12720363,-12.225,-4.0687504,-28.612501
1763129367377,-0.41515473,6.384051,7.2329044,-0.03329213,0.054825112,-0.018325943,0.35827938,-0.034008864,-0.12713842,-12.225,-4.0687504,-28.612501
1763129367395,-0.41515473,6.384051,7.2329044,-0.01527162,0.032070402,0.017562363,0.35827938,-0.034008864,-0.12713842,-12.225,-4.0687504,-28.612501
1763129367396,-0.38404804,6.4259253,7.0839515,-0.01527162,0.032070402,0.017562363,0.35827938,-0.034008864,-0.12713842,-12.225,-4.0687504,-28.612501
1763129367397,-0.38404804,6.4259253,7.0839515,-0.01527162,0.032070402,0.017562363,0.35799494,-0.0336084,-0.12723999,-12.225,-4.0687504,-28.612501
1763129367398,-0.38404804,6.4259253,7.0839515,-0.01527162,0.032070402,0.017562363,0.35799494,-0.0336084,-0.12723999,-12.843751,-4.21875,-28.312502
1763129367418,-0.38404804,6.4259253,7.0839515,-0.026267186,0.012522728,0.018936807,0.35799494,-0.0336084,-0.12723999,-12.843751,-4.21875,-28.312502
1763129367418,-0.38404804,6.4259253,7.0839515,-0.026267186,0.012522728,0.018936807,0.35779825,-0.0334231,-0.12725148,-12.843751,-4.21875,-28.312502
1763129367419,-0.38404804,6.4259253,7.0839515,-0.026267186,0.012522728,0.018936807,0.35779825,-0.0334231,-0.12725148,-10.668751,-2.5875,-29.306252
1763129367421,-0.31405798,6.4959154,7.1659055,-0.026267186,0.012522728,0.018936807,0.35779825,-0.0334231,-0.12725148,-10.668751,-2.5875,-29.306252
1763129367438,-0.31405798,6.4959154,7.1659055,-0.03451386,0.04016436,0.023212861,0.35779825,-0.0334231,-0.12725148,-10.668751,-2.5875,-29.306252
1763129367438,-0.18664017,6.503692,7.112665,-0.03451386,0.04016436,0.023212861,0.35779825,-0.0334231,-0.12725148,-10.668751,-2.5875,-29.306252
1763129367441,-0.18664017,6.503692,7.112665,-0.03451386,0.04016436,0.023212861,0.3575496,-0.033049155,-0.12693898,-10.668751,-2.5875,-29.306252
1763129367442,-0.18664017,6.503692,7.112665,-0.03451386,0.04016436,0.023212861,0.3575496,-0.033049155,-0.12693898,-9.975,-4.36875,-29.7
1763129367457,-0.18664017,6.503692,7.112665,-0.03451386,0.04016436,0.023212861,0.3575496,-0.033049155,-0.12693898,-9.46875,-3.45,-30.843752
1763129367458,-0.18664017,6.503692,7.112665,-0.03604102,0.004123337,0.0048869182,0.3575496,-0.033049155,-0.12693898,-9.46875,-3.45,-30.843752
1763129367459,-0.18664017,6.503692,7.112665,-0.03604102,0.004123337,0.0048869182,0.35730472,-0.033074293,-0.12662283,-9.46875,-3.45,-30.843752
1763129367460,-0.23090738,6.5814586,7.1659055,-0.03604102,0.004123337,0.0048869182,0.35730472,-0.033074293,-0.12662283,-9.46875,-3.45,-30.843752
1763129367477,-0.23090738,6.5814586,7.1659055,-0.03604102,0.004123337,0.0048869182,0.35730472,-0.033074293,-0.12662283,-6.9375005,-2.11875,-35.90625
1763129367480,-0.23090738,6.5814586,7.1659055,-0.029474225,-0.0070249448,0.0074830935,0.35730472,-0.033074293,-0.12662283,-6.9375005,-2.11875,-35.90625
1763129367480,-0.23090738,6.5814586,7.1659055,-0.029474225,-0.0070249448,0.0074830935,0.3571552,-0.033184122,-0.12641332,-6.9375005,-2.11875,-35.90625
1763129367483,-0.2883351,6.533602,7.2658057,-0.029474225,-0.0070249448,0.0074830935,0.3571552,-0.033184122,-0.12641332,-6.9375005,-2.11875,-35.90625
1763129367499,-0.2883351,6.533602,7.2658057,-0.029474225,-0.0070249448,0.0074830935,0.3571552,-0.033184122,-0.12641332,-5.68125,-0.52500004,-35.04375
1763129367501,-0.2883351,6.533602,7.2658057,-0.024740024,0.0048869182,0.019547673,0.3571552,-0.033184122,-0.12641332,-5.68125,-0.52500004,-35.04375
1763129367502,-0.2883351,6.533602,7.2658057,-0.024740024,0.0048869182,0.019547673,0.35690936,-0.03316957,-0.12623303,-5.68125,-0.52500004,-35.04375
1763129367503,-0.25184458,6.5312095,7.266404,-0.024740024,0.0048869182,0.019547673,0.35690936,-0.03316957,-0.12623303,-5.68125,-0.52500004,-35.04375
1763129367520,-0.25184458,6.5312095,7.266404,-0.024740024,0.0048869182,0.019547673,0.35690936,-0.03316957,-0.12623303,-4.6312504,-0.76875,-34.818752
1763129367522,-0.25184458,6.5312095,7.266404,-0.024740024,0.0048869182,0.019547673,0.3568358,-0.03287787,-0.12603672,-4.6312504,-0.76875,-34.818752
1763129367522,-0.25184458,6.5312095,7.266404,-0.0108428495,0.032070402,4.581486E-4,0.3568358,-0.03287787,-0.12603672,-4.6312504,-0.76875,-34.818752
1763129367523,-0.32063824,6.512067,6.6245294,-0.0108428495,0.032070402,4.581486E-4,0.3568358,-0.03287787,-0.12603672,-4.6312504,-0.76875,-34.818752
1763129367537,-0.32063824,6.512067,6.6245294,-0.0108428495,0.032070402,4.581486E-4,0.3568358,-0.03287787,-0.12603672,-10.200001,-6.6937504,-32.025
1763129367543,-0.35294133,6.4719872,7.0815587,-0.0108428495,0.032070402,4.581486E-4,0.3568358,-0.03287787,-0.12603672,-10.200001,-6.6937504,-32.025
1763129367544,-0.35294133,6.4719872,7.0815587,-0.0108428495,0.032070402,4.581486E-4,0.3568461,-0.034023546,-0.12644318,-10.200001,-6.6937504,-32.025
1763129367545,-0.35294133,6.4719872,7.0815587,-0.05222894,-0.12965605,0.0024434591,0.3568461,-0.034023546,-0.12644318,-10.200001,-6.6937504,-32.025
1763129367557,-0.35294133,6.4719872,7.0815587,-0.05222894,-0.12965605,0.0024434591,0.3568461,-0.034023546,-0.12644318,-5.1000004,-0.375,-33.393753
1763129367565,-0.35294133,6.4719872,7.0815587,-0.05222894,-0.12965605,0.0024434591,0.35584074,-0.03490511,-0.12678295,-5.1000004,-0.375,-33.393753
1763129367566,-0.35294133,6.4719872,7.0815587,-0.10537417,-0.10430516,0.029779658,0.35584074,-0.03490511,-0.12678295,-5.1000004,-0.375,-33.393753
1763129367567,-0.12263216,6.486344,7.1132636,-0.10537417,-0.10430516,0.029779658,0.35584074,-0.03490511,-0.12678295,-5.1000004,-0.375,-33.393753
1763129367577,-0.12263216,6.486344,7.1132636,-0.10537417,-0.10430516,0.029779658,0.35584074,-0.03490511,-0.12678295,-7.0312505,-3.24375,-34.275
1763129367584,-0.12263216,6.486344,7.1132636,-0.14630212,-0.07834341,0.009162972,0.35584074,-0.03490511,-0.12678295,-7.0312505,-3.24375,-34.275
1763129367586,-0.15972091,6.4881387,7.5625157,-0.14630212,-0.07834341,0.009162972,0.35584074,-0.03490511,-0.12678295,-7.0312505,-3.24375,-34.275
1763129367599,-0.15972091,6.4881387,7.5625157,-0.14630212,-0.07834341,0.009162972,0.35447547,-0.03561612,-0.12672545,-7.0312505,-3.24375,-34.275
1763129367600,-0.15972091,6.4881387,7.5625157,-0.14630212,-0.07834341,0.009162972,0.35447547,-0.03561612,-0.12672545,-5.8875003,-1.03125,-33.0
1763129367606,-0.15972091,6.4881387,7.5625157,-0.11514801,0.006872229,0.0097738365,0.35447547,-0.03561612,-0.12672545,-5.8875003,-1.03125,-33.0
1763129367607,-0.1369891,6.328418,7.832905,-0.11514801,0.006872229,0.0097738365,0.35447547,-0.03561612,-0.12672545,-5.8875003,-1.03125,-33.0
1763129367617,-0.1369891,6.328418,7.832905,-0.11514801,0.006872229,0.0097738365,0.3530828,-0.03550157,-0.12656221,-5.8875003,-1.03125,-33.0
1763129367618,-0.1369891,6.328418,7.832905,-0.11514801,0.006872229,0.0097738365,0.3530828,-0.03550157,-0.12656221,-6.3187504,-1.9687501,-36.225002
1763129367626,-0.1369891,6.328418,7.832905,0.01282816,0.0716239,-0.030390523,0.3530828,-0.03550157,-0.12656221,-6.3187504,-1.9687501,-36.225002
1763129367627,-0.35593235,6.2518473,7.6600237,0.01282816,0.0716239,-0.030390523,0.3530828,-0.03550157,-0.12656221,-6.3187504,-1.9687501,-36.225002
1763129367653,-0.35593235,6.2518473,7.6600237,0.01282816,0.0716239,-0.030390523,0.35255346,-0.03480631,-0.12657663,-6.3187504,-1.9687501,-36.225002
1763129367654,-0.35593235,6.2518473,7.6600237,0.01282816,0.0716239,-0.030390523,0.35255346,-0.03480631,-0.12657663,-4.9875,0.6,-34.6875
1763129367654,-0.35593235,6.2518473,7.6600237,0.084452055,0.0073303776,-0.016951498,0.35255346,-0.03480631,-0.12657663,-4.9875,0.6,-34.6875
1763129367655,-0.590429,6.3858457,7.0396843,0.084452055,0.0073303776,-0.016951498,0.35255346,-0.03480631,-0.12657663,-4.9875,0.6,-34.6875
