timestamp,accX,accY,accZ,gyroX,gyroY,gyroZ,rotX,rotY,rotZ,magX,magY,magZ
1763129445886,-5.948557,4.6438704,3.5162528,-0.2771799,-0.4647154,-0.04963276,0.30758476,0.27415678,-0.15088733,17.25,9.75,-32.71875
1763129445886,-5.058427,5.1667023,5.150551,-0.2771799,-0.4647154,-0.04963276,0.30758476,0.27415678,-0.15088733,17.25,9.75,-32.71875
1763129445898,-5.058427,5.1667023,5.150551,-0.2771799,-0.4647154,-0.04963276,0.3046234,0.27062222,-0.15244293,17.25,9.75,-32.71875
1763129445899,-5.058427,5.1667023,5.150551,-0.2771799,-0.4647154,-0.04963276,0.3046234,0.27062222,-0.15244293,13.293751,7.5937505,-26.79375
1763129445907,-5.058427,5.1667023,5.150551,-0.17944153,-0.7961095,-0.20311254,0.3046234,0.27062222,-0.15244293,13.293751,7.5937505,-26.79375
1763129445907,-5.1792645,4.7629137,6.4145594,-0.17944153,-0.7961095,-0.20311254,0.3046234,0.27062222,-0.15244293,13.293751,7.5937505,-26.79375
1763129445917,-5.1792645,4.7629137,6.4145594,-0.17944153,-0.7961095,-0.20311254,0.3013782,0.2640597,-0.15624125,13.293751,7.5937505,-26.79375
1763129445917,-5.1792645,4.7629137,6.4145594,-0.17944153,-0.7961095,-0.20311254,0.3013782,0.2640597,-0.15624125,12.675,6.15,-29.025002
1763129445927,-5.1792645,4.7629137,6.4145594,-0.17562363,-0.70783955,-0.19486587,0.3013782,0.2640597,-0.15624125,12.675,6.15,-29.025002
1763129445929,-5.5914283,4.042674,7.1748786,-0.17562363,-0.70783955,-0.19486587,0.3013782,0.2640597,-0.15624125,12.675,6.15,-29.025002
1763129445938,-5.5914283,4.042674,7.1748786,-0.17562363,-0.70783955,-0.19486587,0.29808146,0.2582279,-0.15970442,12.675,6.15,-29.025002
1763129445938,-5.5914283,4.042674,7.1748786,-0.17562363,-0.70783955,-0.19486587,0.29808146,0.2582279,-0.15970442,13.06875,9.13125,-29.250002
1763129445949,-5.5914283,4.042674,7.1748786,-0.15286891,-0.45005462,-0.102014415,0.29808146,0.2582279,-0.15970442,13.06875,9.13125,-29.250002
1763129445950,-5.3294144,4.2131624,7.3429747,-0.15286891,-0.45005462,-0.102014415,0.29808146,0.2582279,-0.15970442,13.06875,9.13125,-29.250002
1763129445958,-5.3294144,4.2131624,7.3429747,-0.15286891,-0.45005462,-0.102014415,0.29548252,0.25452462,-0.16175824,13.06875,9.13125,-29.250002
1763129445959,-5.3294144,4.2131624,7.3429747,-0.15286891,-0.45005462,-0.102014415,0.29548252,0.25452462,-0.16175824,14.981251,8.7375,-32.8125
1763129445970,-5.3294144,4.2131624,7.3429747,-0.16142102,-0.25045455,-0.13469568,0.29548252,0.25452462,-0.16175824,14.981251,8.7375,-32.8125
1763129445971,-5.1924253,4.5738807,6.8781686,-0.16142102,-0.25045455,-0.13469568,0.29548252,0.25452462,-0.16175824,14.981251,8.7375,-32.8125
1763129445979,-5.1924253,4.5738807,6.8781686,-0.16142102,-0.25045455,-0.13469568,0.29304606,0.25278923,-0.16334733,14.981251,8.7375,-32.8125
1763129445980,-5.1924253,4.5738807,6.8781686,-0.16142102,-0.25045455,-0.13469568,0.29304606,0.25278923,-0.16334733,14.175,9.675,-31.48125
1763129445991,-5.1924253,4.5738807,6.8781686,-0.15729769,-0.28848088,-0.18875721,0.29304606,0.25278923,-0.16334733,14.175,9.675,-31.48125
1763129445992,-5.436493,4.4841495,6.409774,-0.15729769,-0.28848088,-0.18875721,0.29304606,0.25278923,-0.16334733,14.175,9.675,-31.48125
1763129445997,-5.436493,4.4841495,6.409774,-0.15729769,-0.28848088,-0.18875721,0.2905757,0.2508597,-0.16550338,14.175,9.675,-31.48125
1763129445998,-5.436493,4.4841495,6.409774,-0.15729769,-0.28848088,-0.18875721,0.2905757,0.2508597,-0.16550338,15.825001,10.40625,-30.13125
1763129446013,-5.436493,4.4841495,6.409774,-0.12324197,-0.49067715,-0.15210533,0.2905757,0.2508597,-0.16550338,15.825001,10.40625,-30.13125
1763129446014,-5.7601223,4.2705903,6.5754766,-0.12324197,-0.49067715,-0.15210533,0.2905757,0.2508597,-0.16550338,15.825001,10.40625,-30.13125
1763129446018,-5.7601223,4.2705903,6.5754766,-0.12324197,-0.49067715,-0.15210533,0.28826356,0.24690336,-0.16816661,15.825001,10.40625,-30.13125
1763129446019,-5.7601223,4.2705903,6.5754766,-0.12324197,-0.49067715,-0.15210533,0.28826356,0.24690336,-0.16816661,14.493751,8.475,-31.987501
1763129446033,-5.7601223,4.2705903,6.5754766,-0.030695954,-0.62399834,-0.07040217,0.28826356,0.24690336,-0.16816661,14.493751,8.475,-31.987501
1763129446034,-5.624928,4.3645086,7.320243,-0.030695954,-0.62399834,-0.07040217,0.28826356,0.24690336,-0.16816661,14.493751,8.475,-31.987501
1763129446038,-5.624928,4.3645086,7.320243,-0.030695954,-0.62399834,-0.07040217,0.28678116,0.2413014,-0.17084642,14.493751,8.475,-31.987501
1763129446039,-5.624928,4.3645086,7.320243,-0.030695954,-0.62399834,-0.07040217,0.28678116,0.2413014,-0.17084642,13.481251,8.400001,-30.750002
1763129446055,-5.4233327,4.458427,7.5314093,-0.030695954,-0.62399834,-0.07040217,0.28678116,0.2413014,-0.17084642,13.481251,8.400001,-30.750002
1763129446056,-5.4233327,4.458427,7.5314093,0.042455103,-0.51312643,-0.06383537,0.28678116,0.2413014,-0.17084642,13.481251,8.400001,-30.750002
1763129446060,-5.4233327,4.458427,7.5314093,0.042455103,-0.51312643,-0.06383537,0.28610617,0.2365405,-0.17320429,13.481251,8.400001,-30.750002
1763129446061,-5.4233327,4.458427,7.5314093,0.042455103,-0.51312643,-0.06383537,0.28610617,0.2365405,-0.17320429,15.20625,11.0625,-30.487501
1763129446075,-5.4233327,4.458427,7.5314093,-0.0070249448,-0.33887723,-0.118507765,0.28610617,0.2365405,-0.17320429,15.20625,11.0625,-30.487501
1763129446076,-5.231907,4.404588,7.251449,-0.0070249448,-0.33887723,-0.118507765,0.28610617,0.2365405,-0.17320429,15.20625,11.0625,-30.487501
1763129446077,-5.231907,4.404588,7.251449,-0.0070249448,-0.33887723,-0.118507765,0.285113,0.23366204,-0.1753491,15.20625,11.0625,-30.487501
1763129446078,-5.231907,4.404588,7.251449,-0.0070249448,-0.33887723,-0.118507765,0.285113,0.23366204,-0.1753491,14.55,9.618751,-30.900002
1763129446096,-5.288138,4.1958146,7.108478,-0.0070249448,-0.33887723,-0.118507765,0.285113,0.23366204,-0.1753491,14.55,9.618751,-30.900002
1763129446097,-5.288138,4.1958146,7.108478,-0.07116575,-0.2611447,-0.1301142,0.285113,0.23366204,-0.1753491,14.55,9.618751,-30.900002
1763129446098,-5.288138,4.1958146,7.108478,-0.07116575,-0.2611447,-0.1301142,0.28364673,0.23168153,-0.17719582,14.55,9.618751,-30.900002
1763129446098,-5.288138,4.1958146,7.108478,-0.07116575,-0.2611447,-0.1301142,0.28364673,0.23168153,-0.17719582,12.0375,7.89375,-31.95
1763129446117,-5.288138,4.1958146,7.108478,-0.036346454,-0.33719736,-0.07208204,0.28364673,0.23168153,-0.17719582,12.0375,7.89375,-31.95
1763129446119,-5.288138,4.1958146,7.108478,-0.036346454,-0.33719736,-0.07208204,0.2825131,0.2287633,-0.17888539,12.0375,7.89375,-31.95
1763129446120,-5.288138,4.1958146,7.108478,-0.036346454,-0.33719736,-0.07208204,0.2825131,0.2287633,-0.17888539,12.675,9.337501,-30.7875
1763129446120,-5.3359947,4.1551366,7.1677003,-0.036346454,-0.33719736,-0.07208204,0.2825131,0.2287633,-0.17888539,12.675,9.337501,-30.7875
1763129446138,-5.3359947,4.1551366,7.1677003,-0.036346454,-0.33719736,-0.07208204,0.2825131,0.2287633,-0.17888539,13.575001,10.181251,-31.650002
1763129446139,-5.3359947,4.1551366,7.1677003,0.024587307,-0.41065386,-0.028863361,0.2825131,0.2287633,-0.17888539,13.575001,10.181251,-31.650002
1763129446139,-5.3359947,4.1551366,7.1677003,0.024587307,-0.41065386,-0.028863361,0.28192228,0.22490658,-0.1805613,13.575001,10.181251,-31.650002
1763129446139,-5.1266227,4.3375893,7.218548,0.024587307,-0.41065386,-0.028863361,0.28192228,0.22490658,-0.1805613,13.575001,10.181251,-31.650002
1763129446157,-5.1266227,4.3375893,7.218548,0.024587307,-0.41065386,-0.028863361,0.28192228,0.22490658,-0.1805613,6.80625,5.26875,-29.306252
1763129446158,-5.1266227,4.3375893,7.218548,0.0050396346,-0.37308568,-0.09117157,0.28192228,0.22490658,-0.1805613,6.80625,5.26875,-29.306252
1763129446159,-5.1266227,4.3375893,7.218548,0.0050396346,-0.37308568,-0.09117157,0.28108183,0.22160247,-0.18258274,6.80625,5.26875,-29.306252
1763129446161,-4.8173504,4.491926,7.225128,0.0050396346,-0.37308568,-0.09117157,0.28108183,0.22160247,-0.18258274,6.80625,5.26875,-29.306252
1763129446178,-4.8173504,4.491926,7.225128,0.0050396346,-0.37308568,-0.09117157,0.28108183,0.22160247,-0.18258274,14.418751,10.5375,-31.650002
1763129446181,-4.8173504,4.491926,7.225128,0.0050396346,-0.37308568,-0.09117157,0.27972946,0.21920994,-0.1851212,14.418751,10.5375,-31.650002
1763129446182,-4.8173504,4.491926,7.225128,-0.038179047,-0.31199917,-0.18723005,0.27972946,0.21920994,-0.1851212,14.418751,10.5375,-31.650002
1763129446184,-4.7341995,4.4057846,7.283752,-0.038179047,-0.31199917,-0.18723005,0.27972946,0.21920994,-0.1851212,14.418751,10.5375,-31.650002
1763129446198,-4.7341995,4.4057846,7.283752,-0.038179047,-0.31199917,-0.18723005,0.27972946,0.21920994,-0.1851212,13.687501,11.15625,-33.225002
1763129446200,-4.7341995,4.4057846,7.283752,-0.012064579,-0.30787584,-0.21655156,0.27972946,0.21920994,-0.1851212,13.687501,11.15625,-33.225002
1763129446201,-5.015356,4.174877,7.2963142,-0.012064579,-0.30787584,-0.21655156,0.27972946,0.21920994,-0.1851212,13.687501,11.15625,-33.225002
1763129446202,-5.015356,4.174877,7.2963142,-0.012064579,-0.30787584,-0.21655156,0.27854612,0.21688193,-0.1879814,13.687501,11.15625,-33.225002
1763129446219,-5.015356,4.174877,7.2963142,-0.012064579,-0.30787584,-0.21655156,0.27854612,0.21688193,-0.1879814,12.262501,9.056251,-33.5625
1763129446222,-5.0141597,4.174877,7.432107,-0.012064579,-0.30787584,-0.21655156,0.27854612,0.21688193,-0.1879814,12.262501,9.056251,-33.5625
1763129446223,-5.0141597,4.174877,7.432107,-0.012064579,-0.30787584,-0.21655156,0.27785605,0.21410464,-0.19091816,12.262501,9.056251,-33.5625
1763129446224,-5.0141597,4.174877,7.432107,0.04046979,-0.33964083,-0.1875355,0.27785605,0.21410464,-0.19091816,12.262501,9.056251,-33.5625
1763129446238,-5.0141597,4.174877,7.432107,0.04046979,-0.33964083,-0.1875355,0.27785605,0.21410464,-0.19091816,11.981251,8.512501,-35.006252
1763129446242,-4.9992046,4.1001015,7.1946197,0.04046979,-0.33964083,-0.1875355,0.27785605,0.21410464,-0.19091816,11.981251,8.512501,-35.006252
1763129446243,-4.9992046,4.1001015,7.1946197,0.018631376,-0.28710645,-0.160352,0.27785605,0.21410464,-0.19091816,11.981251,8.512501,-35.006252
1763129446244,-4.9992046,4.1001015,7.1946197,0.018631376,-0.28710645,-0.160352,0.27710763,0.21179062,-0.19338705,11.981251,8.512501,-35.006252
1763129446257,-4.9992046,4.1001015,7.1946197,0.018631376,-0.28710645,-0.160352,0.27710763,0.21179062,-0.19338705,12.525001,10.425,-31.875002
1763129446264,-4.9992046,4.1001015,7.1946197,-0.038179047,-0.2809978,-0.13927718,0.27710763,0.21179062,-0.19338705,12.525001,10.425,-31.875002
1763129446265,-4.9992046,4.1001015,7.1946197,-0.038179047,-0.2809978,-0.13927718,0.2758975,0.20960987,-0.19554378,12.525001,10.425,-31.875002
1763129446266,-4.85743,4.1922255,7.3304124,-0.038179047,-0.2809978,-0.13927718,0.2758975,0.20960987,-0.19554378,12.525001,10.425,-31.875002
1763129446277,-4.85743,4.1922255,7.3304124,-0.038179047,-0.2809978,-0.13927718,0.2758975,0.20960987,-0.19554378,11.85,9.13125,-32.79375
1763129446284,-4.85743,4.1922255,7.3304124,-0.038179047,-0.2809978,-0.13927718,0.2746944,0.20753853,-0.1978539,11.85,9.13125,-32.79375
1763129446285,-4.7988057,4.1587257,7.440482,-0.038179047,-0.2809978,-0.13927718,0.2746944,0.20753853,-0.1978539,11.85,9.13125,-32.79375
1763129446286,-4.7988057,4.1587257,7.440482,-0.032833982,-0.27290383,-0.16371176,0.2746944,0.20753853,-0.1978539,11.85,9.13125,-32.79375
1763129446298,-4.7988057,4.1587257,7.440482,-0.032833982,-0.27290383,-0.16371176,0.2746944,0.20753853,-0.1978539,11.75625,8.137501,-33.45
1763129446306,-4.851448,4.1479583,7.3160553,-0.032833982,-0.27290383,-0.16371176,0.2746944,0.20753853,-0.1978539,11.75625,8.137501,-33.45
1763129446307,-4.851448,4.1479583,7.3160553,-0.035124727,-0.27992877,-0.18264857,0.2746944,0.20753853,-0.1978539,11.75625,8.137501,-33.45
1763129446318,-4.851448,4.1479583,7.3160553,-0.035124727,-0.27992877,-0.18264857,0.2746944,0.20753853,-0.1978539,9.69375,7.5000005,-33.0
1763129446319,-4.851448,4.1479583,7.3160553,-0.035124727,-0.27992877,-0.18264857,0.27339566,0.20544624,-0.20034558,9.69375,7.5000005,-33.0
1763129446326,-4.9531426,4.0564327,7.2993054,-0.035124727,-0.27992877,-0.18264857,0.27339566,0.20544624,-0.20034558,9.69375,7.5000005,-33.0
1763129446327,-4.9531426,4.0564327,7.2993054,-0.054825112,-0.30665413,-0.18188499,0.27339566,0.20544624,-0.20034558,9.69375,7.5000005,-33.0
1763129446338,-4.9531426,4.0564327,7.2993054,-0.054825112,-0.30665413,-0.18188499,0.27187964,0.20315607,-0.20289461,9.69375,7.5000005,-33.0
1763129446338,-4.9531426,4.0564327,7.2993054,-0.054825112,-0.30665413,-0.18188499,0.27187964,0.20315607,-0.20289461,11.25,8.981251,-33.99375
1763129446348,-4.9531426,4.0564327,7.2993054,-0.07223476,-0.32391104,-0.16447534,0.27187964,0.20315607,-0.20289461,11.25,8.981251,-33.99375
1763129446349,-4.914858,4.042674,7.500303,-0.07223476,-0.32391104,-0.16447534,0.27187964,0.20315607,-0.20289461,11.25,8.981251,-33.99375
1763129446357,-4.914858,4.042674,7.500303,-0.07223476,-0.32391104,-0.16447534,0.27019894,0.20070755,-0.20534559,11.25,8.981251,-33.99375
1763129446358,-4.914858,4.042674,7.500303,-0.07223476,-0.32391104,-0.16447534,0.27019894,0.20070755,-0.20534559,12.7875,10.462501,-33.61875
1763129446369,-4.914858,4.042674,7.500303,-0.0632245,-0.30619597,-0.13683371,0.27019894,0.20070755,-0.20534559,12.7875,10.462501,-33.61875
1763129446369,-4.7425747,4.024728,7.361519,-0.0632245,-0.30619597,-0.13683371,0.27019894,0.20070755,-0.20534559,12.7875,10.462501,-33.61875
1763129446379,-4.7425747,4.024728,7.361519,-0.0632245,-0.30619597,-0.13683371,0.26867613,0.19831906,-0.20748125,12.7875,10.462501,-33.61875
1763129446380,-4.7425747,4.024728,7.361519,-0.0632245,-0.30619597,-0.13683371,0.26867613,0.19831906,-0.20748125,10.89375,9.543751,-33.787502
1763129446390,-4.7425747,4.024728,7.361519,-0.043371398,-0.42882708,-0.14737113,0.26867613,0.19831906,-0.20748125,10.89375,9.543751,-33.787502
1763129446391,-4.3740797,4.089932,7.1102724,-0.043371398,-0.42882708,-0.14737113,0.26867613,0.19831906,-0.20748125,10.89375,9.543751,-33.787502
1763129446398,-4.3740797,4.089932,7.1102724,-0.043371398,-0.42882708,-0.14737113,0.267067,0.19472624,-0.21007703,10.89375,9.543751,-33.787502
1763129446399,-4.3740797,4.089932,7.1102724,-0.043371398,-0.42882708,-0.14737113,0.267067,0.19472624,-0.21007703,10.462501,9.76875,-32.90625
1763129446413,-4.3740797,4.089932,7.1102724,-0.05146536,-0.5685624,-0.2283107,0.267067,0.19472624,-0.21007703,10.462501,9.76875,-32.90625
1763129446414,-4.052245,4.1922255,6.9523463,-0.05146536,-0.5685624,-0.2283107,0.267067,0.19472624,-0.21007703,10.462501,9.76875,-32.90625
1763129446418,-4.052245,4.1922255,6.9523463,-0.05146536,-0.5685624,-0.2283107,0.26493376,0.18999827,-0.21372993,10.462501,9.76875,-32.90625
1763129446419,-4.052245,4.1922255,6.9523463,-0.05146536,-0.5685624,-0.2283107,0.26493376,0.18999827,-0.21372993,8.6625,8.231251,-32.5875
1763129446432,-4.052245,4.1922255,6.9523463,-0.13775001,-0.7884737,-0.37461284,0.26493376,0.18999827,-0.21372993,8.6625,8.231251,-32.5875
1763129446432,-3.8602211,4.3872404,6.430113,-0.13775001,-0.7884737,-0.37461284,0.26493376,0.18999827,-0.21372993,8.6625,8.231251,-32.5875
1763129446437,-3.8602211,4.3872404,6.430113,-0.13775001,-0.7884737,-0.37461284,0.26493376,0.18999827,-0.21372993,8.231251,8.606251,-33.412502
1763129446453,-3.8602211,4.3872404,6.430113,-0.34269515,-0.97096956,-0.61025393,0.26493376,0.18999827,-0.21372993,8.231251,8.606251,-33.412502
1763129446454,-3.9260237,4.5206404,6.859026,-0.34269515,-0.97096956,-0.61025393,0.26493376,0.18999827,-0.21372993,8.231251,8.606251,-33.412502
1763129446458,-3.9260237,4.5206404,6.859026,-0.34269515,-0.97096956,-0.61025393,0.2619517,0.18366538,-0.21841101,8.231251,8.606251,-33.412502
1763129446459,-3.9260237,4.5206404,6.859026,-0.34269515,-0.97096956,-0.61025393,0.2569388,0.17677628,-0.22507353,8.231251,8.606251,-33.412502
1763129446460,-3.9260237,4.5206404,6.859026,-0.34269515,-0.97096956,-0.61025393,0.2569388,0.17677628,-0.22507353,8.08125,9.39375,-31.3875
1763129446474,-4.351348,4.0067816,7.5200434,-0.34269515,-0.97096956,-0.61025393,0.2569388,0.17677628,-0.22507353,8.08125,9.39375,-31.3875
1763129446475,-4.351348,4.0067816,7.5200434,-0.47311476,-1.0221295,-0.7528908,0.2569388,0.17677628,-0.22507353,8.08125,9.39375,-31.3875
1763129446479,-4.351348,4.0067816,7.5200434,-0.47311476,-1.0221295,-0.7528908,0.2569388,0.17677628,-0.22507353,7.9687505,9.50625,-33.881252
1763129446495,-4.351348,4.0067816,7.5200434,-0.48594293,-1.0975713,-0.68905544,0.2569388,0.17677628,-0.22507353,7.9687505,9.50625,-33.881252
1763129446496,-4.482355,3.4725838,7.880163,-0.48594293,-1.0975713,-0.68905544,0.2569388,0.17677628,-0.22507353,7.9687505,9.50625,-33.881252
1763129446499,-4.482355,3.4725838,7.880163,-0.48594293,-1.0975713,-0.68905544,0.24879168,0.17000706,-0.2340153,7.9687505,9.50625,-33.881252
1763129446501,-4.482355,3.4725838,7.880163,-0.48594293,-1.0975713,-0.68905544,0.24030326,0.16239953,-0.24268472,7.9687505,9.50625,-33.881252
1763129446502,-4.482355,3.4725838,7.880163,-0.48594293,-1.0975713,-0.68905544,0.24030326,0.16239953,-0.24268472,6.2812505,8.8125,-33.131252
1763129446515,-4.482355,3.4725838,7.880163,-0.4468476,-1.2444843,-0.59452415,0.24030326,0.16239953,-0.24268472,6.2812505,8.8125,-33.131252
1763129446516,-4.1958146,3.377469,7.88794,-0.4468476,-1.2444843,-0.59452415,0.24030326,0.16239953,-0.24268472,6.2812505,8.8125,-33.131252
1763129446517,-4.1958146,3.377469,7.88794,-0.4468476,-1.2444843,-0.59452415,0.23184611,0.15304168,-0.25098613,6.2812505,8.8125,-33.131252
1763129446518,-4.1958146,3.377469,7.88794,-0.4468476,-1.2444843,-0.59452415,0.23184611,0.15304168,-0.25098613,6.99375,10.06875,-35.081253
1763129446538,-4.1958146,3.377469,7.88794,-0.4468476,-1.2444843,-0.59452415,0.2225462,0.1421108,-0.2595391,6.99375,10.06875,-35.081253
1763129446539,-4.1958146,3.377469,7.88794,-0.48349947,-1.4115558,-0.59437144,0.2225462,0.1421108,-0.2595391,6.99375,10.06875,-35.081253
1763129446541,-3.8650067,3.3230324,7.834101,-0.48349947,-1.4115558,-0.59437144,0.2225462,0.1421108,-0.2595391,6.99375,10.06875,-35.081253
1763129446542,-3.8650067,3.3230324,7.834101,-0.48349947,-1.4115558,-0.59437144,0.2225462,0.1421108,-0.2595391,4.875,9.6,-32.7
1763129446558,-3.8650067,3.3230324,7.834101,-0.48349947,-1.4115558,-0.59437144,0.21171704,0.12944257,-0.2687684,4.875,9.6,-32.7
1763129446560,-3.8650067,3.3230324,7.834101,-0.5707004,-1.6200134,-0.6401863,0.21171704,0.12944257,-0.2687684,4.875,9.6,-32.7
1763129446562,-3.8650067,3.3230324,7.834101,-0.5707004,-1.6200134,-0.6401863,0.21171704,0.12944257,-0.2687684,3.7125,9.806251,-34.4625
1763129446563,-3.6257246,3.21715,7.9884386,-0.5707004,-1.6200134,-0.6401863,0.21171704,0.12944257,-0.2687684,3.7125,9.806251,-34.4625
1763129446579,-3.6257246,3.21715,7.9884386,-0.5280926,-1.8582506,-0.67302024,0.21171704,0.12944257,-0.2687684,3.7125,9.806251,-34.4625
1763129446579,-3.6257246,3.21715,7.9884386,-0.5280926,-1.8582506,-0.67302024,0.18342926,0.14011754,-0.15174416,3.7125,9.806251,-34.4625
1763129446581,-3.6257246,3.21715,7.9884386,-0.5280926,-1.8582506,-0.67302024,0.18342926,0.14011754,-0.15174416,1.95,9.4125,-32.30625
1763129446583,-3.4857445,3.0179477,8.883952,-0.5280926,-1.8582506,-0.67302024,0.18342926,0.14011754,-0.15174416,1.95,9.4125,-32.30625
1763129446598,-3.4857445,3.0179477,8.883952,-0.5280926,-1.8582506,-0.67302024,0.18342926,0.14011754,-0.15174416,1.0875001,10.96875,-34.331253
1763129446599,-3.4857445,3.0179477,8.883952,-0.30558512,-1.7964005,-0.6375901,0.18342926,0.14011754,-0.15174416,1.0875001,10.96875,-34.331253
1763129446606,-3.4857445,3.0179477,8.883952,-0.30558512,-1.7964005,-0.6375901,0.17656353,0.123792805,-0.16129668,1.0875001,10.96875,-34.331253
1763129446606,-3.3720853,3.1902308,10.331012,-0.30558512,-1.7964005,-0.6375901,0.17656353,0.123792805,-0.16129668,1.0875001,10.96875,-34.331253
1763129446618,-3.3720853,3.1902308,10.331012,-0.30558512,-1.7964005,-0.6375901,0.17656353,0.123792805,-0.16129668,1.0500001,11.118751,-33.018753
1763129446620,-3.3720853,3.1902308,10.331012,0.108581215,-1.5207479,-0.6194169,0.17656353,0.123792805,-0.16129668,1.0500001,11.118751,-33.018753
1763129446621,-3.3720853,3.1902308,10.331012,0.108581215,-1.5207479,-0.6194169,0.17423761,0.10942963,-0.17059432,1.0500001,11.118751,-33.018753
1763129446622,-2.9318058,2.7547371,10.295717,0.108581215,-1.5207479,-0.6194169,0.17423761,0.10942963,-0.17059432,1.0500001,11.118751,-33.018753
1763129446638,-2.9318058,2.7547371,10.295717,0.108581215,-1.5207479,-0.6194169,0.17423761,0.10942963,-0.17059432,-3.2812502,8.53125,-31.050001
1763129446641,-2.9318058,2.7547371,10.295717,0.108581215,-1.5207479,-0.6194169,0.17558783,0.09689057,-0.18007536,-3.2812502,8.53125,-31.050001
1763129446643,-2.9318058,2.7547371,10.295717,0.4486802,-1.2800671,-0.64568406,0.17558783,0.09689057,-0.18007536,-3.2812502,8.53125,-31.050001
1763129446644,-2.501696,2.379662,9.7704935,0.4486802,-1.2800671,-0.64568406,0.17558783,0.09689057,-0.18007536,-3.2812502,8.53125,-31.050001
1763129446659,-2.501696,2.379662,9.7704935,0.4486802,-1.2800671,-0.64568406,0.17558783,0.09689057,-0.18007536,-3.4875002,8.325001,-31.95
1763129446663,-2.501696,2.379662,9.7704935,0.6664535,-1.016479,-0.60964304,0.17558783,0.09689057,-0.18007536,-3.4875002,8.325001,-31.95
1763129446664,-2.501696,2.379662,9.7704935,0.6664535,-1.016479,-0.60964304,0.17955665,0.086504474,-0.18889958,-3.4875002,8.325001,-31.95
1763129446665,-2.5507488,2.3276181,9.736994,0.6664535,-1.016479,-0.60964304,0.17955665,0.086504474,-0.18889958,-3.4875002,8.325001,-31.95
1763129446677,-2.5507488,2.3276181,9.736994,0.6664535,-1.016479,-0.60964304,0.17955665,0.086504474,-0.18889958,-4.59375,9.65625,-33.09375
1763129446683,-2.5507488,2.3276181,9.736994,0.6664535,-1.016479,-0.60964304,0.18472518,0.07892891,-0.19544691,-4.59375,9.65625,-33.09375
1763129446684,-2.5507488,2.3276181,9.736994,0.71318465,-0.6985239,-0.43554658,0.18472518,0.07892891,-0.19544691,-4.59375,9.65625,-33.09375
1763129446685,-2.8283165,2.1296122,9.471989,0.71318465,-0.6985239,-0.43554658,0.18472518,0.07892891,-0.19544691,-4.59375,9.65625,-33.09375
1763129446698,-2.8283165,2.1296122,9.471989,0.71318465,-0.6985239,-0.43554658,0.18472518,0.07892891,-0.19544691,-3.0937502,8.25,-32.11875
1763129446705,-2.8283165,2.1296122,9.471989,0.71318465,-0.6985239,-0.43554658,0.18557271,0.07214326,-0.19766493,-3.0937502,8.25,-32.11875
1763129446706,-2.8283165,2.1296122,9.471989,0.24449863,-0.6487384,-0.040317077,0.18557271,0.07214326,-0.19766493,-3.0937502,8.25,-32.11875
1763129446708,-2.8510482,2.0338993,8.7367935,0.24449863,-0.6487384,-0.040317077,0.18557271,0.07214326,-0.19766493,-3.0937502,8.25,-32.11875
1763129446718,-2.8510482,2.0338993,8.7367935,0.24449863,-0.6487384,-0.040317077,0.18557271,0.07214326,-0.19766493,-3.7500002,10.012501,-33.09375
1763129446725,-2.8510482,2.0338993,8.7367935,-0.1904371,-0.5070178,0.19792019,0.18557271,0.07214326,-0.19766493,-3.7500002,10.012501,-33.09375
1763129446726,-2.0925233,2.9659038,9.34457,-0.1904371,-0.5070178,0.19792019,0.18557271,0.07214326,-0.19766493,-3.7500002,10.012501,-33.09375
1763129446739,-2.0925233,2.9659038,9.34457,-0.1904371,-0.5070178,0.19792019,0.18256693,0.067273006,-0.1969176,-3.7500002,10.012501,-33.09375
1763129446739,-2.0925233,2.9659038,9.34457,-0.1904371,-0.5070178,0.19792019,0.18256693,0.067273006,-0.1969176,-3.2250001,9.168751,-33.61875
1763129446747,-2.0925233,2.9659038,9.34457,-0.18112141,-0.43020153,0.08964441,0.18256693,0.067273006,-0.1969176,-3.2250001,9.168751,-33.61875
1763129446748,-1.8406788,3.2877383,8.974879,-0.18112141,-0.43020153,0.08964441,0.18256693,0.067273006,-0.1969176,-3.2250001,9.168751,-33.61875
1763129446757,-1.8406788,3.2877383,8.974879,-0.18112141,-0.43020153,0.08964441,0.17985961,0.06317589,-0.19678715,-3.2250001,9.168751,-33.61875
1763129446758,-1.8406788,3.2877383,8.974879,-0.18112141,-0.43020153,0.08964441,0.17985961,0.06317589,-0.19678715,-6.4687505,7.7812505,-32.23125
1763129446768,-1.8406788,3.2877383,8.974879,-0.06139191,-0.69241524,0.018325943,0.17985961,0.06317589,-0.19678715,-6.4687505,7.7812505,-32.23125
1763129446768,-1.9800607,3.2476585,8.955139,-0.06139191,-0.69241524,0.018325943,0.17985961,0.06317589,-0.19678715,-6.4687505,7.7812505,-32.23125
1763129446781,-1.9800607,3.2476585,8.955139,-0.06139191,-0.69241524,0.018325943,0.1778699,0.05629239,-0.19786708,-6.4687505,7.7812505,-32.23125
1763129446782,-1.9800607,3.2476585,8.955139,-0.06139191,-0.69241524,0.018325943,0.1778699,0.05629239,-0.19786708,-6.43125,7.4812503,-31.687502
1763129446789,-1.9800607,3.2476585,8.955139,0.18234314,-0.8805616,0.020769402,0.1778699,0.05629239,-0.19786708,-6.43125,7.4812503,-31.687502
1763129446790,-1.8747765,3.2482567,9.841082,0.18234314,-0.8805616,0.020769402,0.1778699,0.05629239,-0.19786708,-6.43125,7.4812503,-31.687502
1763129446798,-1.8747765,3.2482567,9.841082,0.18234314,-0.8805616,0.020769402,0.17794359,0.04705955,-0.19949706,-6.43125,7.4812503,-31.687502
1763129446798,-1.8747765,3.2482567,9.841082,0.18234314,-0.8805616,0.020769402,0.17794359,0.04705955,-0.19949706,-7.2375,7.7812505,-31.10625
1763129446809,-1.8747765,3.2482567,9.841082,0.32757625,-0.6328559,-0.0019853106,0.17794359,0.04705955,-0.19949706,-7.2375,7.7812505,-31.10625
1763129446810,-1.4656038,3.1663027,9.881161,0.32757625,-0.6328559,-0.0019853106,0.17794359,0.04705955,-0.19949706,-7.2375,7.7812505,-31.10625
1763129446819,-1.4656038,3.1663027,9.881161,0.32757625,-0.6328559,-0.0019853106,0.1798841,0.040051833,-0.20096566,-7.2375,7.7812505,-31.10625
1763129446820,-1.4656038,3.1663027,9.881161,0.32757625,-0.6328559,-0.0019853106,0.1798841,0.040051833,-0.20096566,-8.475,6.8250003,-32.737503
1763129446831,-1.4656038,3.1663027,9.881161,0.11759147,-0.29290965,0.008246674,0.1798841,0.040051833,-0.20096566,-8.475,6.8250003,-32.737503
1763129446831,-1.0624132,3.3224342,9.089137,0.11759147,-0.29290965,0.008246674,0.1798841,0.040051833,-0.20096566,-8.475,6.8250003,-32.737503
1763129446837,-1.0624132,3.3224342,9.089137,0.11759147,-0.29290965,0.008246674,0.18037215,0.03683089,-0.20151494,-8.475,6.8250003,-32.737503
1763129446837,-1.0624132,3.3224342,9.089137,0.11759147,-0.29290965,0.008246674,0.18037215,0.03683089,-0.20151494,-5.90625,9.69375,-31.218752
1763129446851,-1.0624132,3.3224342,9.089137,-0.076358095,-0.15286891,-0.023060145,0.18037215,0.03683089,-0.20151494,-5.90625,9.69375,-31.218752
1763129446853,-1.0588241,3.522235,9.075378,-0.076358095,-0.15286891,-0.023060145,0.18037215,0.03683089,-0.20151494,-5.90625,9.69375,-31.218752
1763129446858,-1.0588241,3.522235,9.075378,-0.076358095,-0.15286891,-0.023060145,0.17927533,0.035425715,-0.20190984,-5.90625,9.69375,-31.218752
1763129446859,-1.0588241,3.522235,9.075378,-0.076358095,-0.15286891,-0.023060145,0.17927533,0.035425715,-0.20190984,-7.1062503,6.3375,-33.2625
1763129446873,-1.0588241,3.522235,9.075378,-0.020616686,-0.18982624,-0.044287696,0.17927533,0.035425715,-0.20190984,-7.1062503,6.3375,-33.2625
1763129446874,-1.2969099,3.2961133,9.290732,-0.020616686,-0.18982624,-0.044287696,0.17927533,0.035425715,-0.20190984,-7.1062503,6.3375,-33.2625
1763129446878,-1.2969099,3.2961133,9.290732,-0.020616686,-0.18982624,-0.044287696,0.17870484,0.033568557,-0.20258993,-7.1062503,6.3375,-33.2625
1763129446879,-1.2969099,3.2961133,9.290732,-0.020616686,-0.18982624,-0.044287696,0.17870484,0.033568557,-0.20258993,-5.625,10.387501,-31.1625
1763129446894,-1.2969099,3.2961133,9.290732,0.15118903,-0.2328922,0.010231985,0.17870484,0.033568557,-0.20258993,-5.625,10.387501,-31.1625
1763129446895,-1.102493,3.3343983,9.698709,0.15118903,-0.2328922,0.010231985,0.17870484,0.033568557,-0.20258993,-5.625,10.387501,-31.1625
1763129446899,-1.102493,3.3343983,9.698709,0.15118903,-0.2328922,0.010231985,0.17973292,0.03087269,-0.20297232,-5.625,10.387501,-31.1625
1763129446900,-1.102493,3.3343983,9.698709,0.15118903,-0.2328922,0.010231985,0.17973292,0.03087269,-0.20297232,-7.9500003,7.2937503,-29.831251
1763129446914,-1.102493,3.3343983,9.698709,0.22174391,-0.055435978,0.010231985,0.17973292,0.03087269,-0.20297232,-7.9500003,7.2937503,-29.831251
1763129446915,-1.0875379,3.3583267,9.638289,0.22174391,-0.055435978,0.010231985,0.17973292,0.03087269,-0.20297232,-7.9500003,7.2937503,-29.831251
1763129446918,-1.0875379,3.3583267,9.638289,0.22174391,-0.055435978,0.010231985,0.17973292,0.03087269,-0.20297232,-8.512501,6.99375,-32.175003
1763129446919,-1.0875379,3.3583267,9.638289,0.22174391,-0.055435978,0.010231985,0.18180197,0.029774232,-0.20299487,-8.512501,6.99375,-32.175003
1763129446935,-1.0875379,3.3583267,9.638289,0.13744457,0.17745622,0.01527162,0.18180197,0.029774232,-0.20299487,-8.512501,6.99375,-32.175003
1763129446936,-1.410569,3.0005996,9.35474,0.13744457,0.17745622,0.01527162,0.18180197,0.029774232,-0.20299487,-8.512501,6.99375,-32.175003
1763129446938,-1.410569,3.0005996,9.35474,0.13744457,0.17745622,0.01527162,0.1835176,0.031187166,-0.20248023,-8.512501,6.99375,-32.175003
1763129446938,-1.410569,3.0005996,9.35474,0.13744457,0.17745622,0.01527162,0.1835176,0.031187166,-0.20248023,-11.025001,6.58125,-29.79375
1763129446958,-1.410569,3.0005996,9.35474,0.0772744,0.45677415,0.072540194,0.1835176,0.031187166,-0.20248023,-11.025001,6.58125,-29.79375
1763129446959,-1.410569,3.0005996,9.35474,0.0772744,0.45677415,0.072540194,0.18518816,0.035501435,-0.2009409,-11.025001,6.58125,-29.79375
1763129446960,-1.410569,3.0005996,9.35474,0.0772744,0.45677415,0.072540194,0.18518816,0.035501435,-0.2009409,-7.55625,6.43125,-29.325
1763129446961,-1.5487545,3.094518,8.636295,0.0772744,0.45677415,0.072540194,0.18518816,0.035501435,-0.2009409,-7.55625,6.43125,-29.325
1763129446979,-1.5487545,3.094518,8.636295,0.21807873,0.003970621,0.07422007,0.18518816,0.035501435,-0.2009409,-7.55625,6.43125,-29.325
1763129446980,-1.6157535,3.3960135,7.7353973,0.21807873,0.003970621,0.07422007,0.18518816,0.035501435,-0.2009409,-7.55625,6.43125,-29.325
1763129446980,-1.6157535,3.3960135,7.7353973,0.21807873,0.003970621,0.07422007,0.18740706,0.034986522,-0.20034558,-7.55625,6.43125,-29.325
1763129446981,-1.6157535,3.3960135,7.7353973,0.21807873,0.003970621,0.07422007,0.18740706,0.034986522,-0.20034558,-7.33125,6.7875004,-31.781252
1763129446998,-1.6157535,3.3960135,7.7353973,0.21807873,0.003970621,0.07422007,0.18900862,0.03077785,-0.20124526,-7.33125,6.7875004,-31.781252
1763129446999,-1.6157535,3.3960135,7.7353973,0.22464553,-0.37843072,1.527162E-4,0.18900862,0.03077785,-0.20124526,-7.33125,6.7875004,-31.781252
1763129447000,-1.0959128,3.7854455,9.041879,0.22464553,-0.37843072,1.527162E-4,0.18900862,0.03077785,-0.20124526,-7.33125,6.7875004,-31.781252
1763129447001,-1.0959128,3.7854455,9.041879,0.22464553,-0.37843072,1.527162E-4,0.18900862,0.03077785,-0.20124526,-7.51875,6.4125004,-32.49375
1763129447017,-1.0959128,3.7854455,9.041879,0.22464553,-0.37843072,1.527162E-4,0.18900862,0.03077785,-0.20124526,-8.681251,5.6625004,-31.275002
1763129447018,-1.0959128,3.7854455,9.041879,0.13668099,-0.18051054,-0.1197295,0.18900862,0.03077785,-0.20124526,-8.681251,5.6625004,-31.275002
1763129447019,-1.0959128,3.7854455,9.041879,0.13668099,-0.18051054,-0.1197295,0.19003369,0.02885511,-0.20275564,-8.681251,5.6625004,-31.275002
1763129447020,-1.4656038,3.3870404,9.734002,0.13668099,-0.18051054,-0.1197295,0.19003369,0.02885511,-0.20275564,-8.681251,5.6625004,-31.275002
1763129447037,-1.4656038,3.3870404,9.734002,0.13668099,-0.18051054,-0.1197295,0.19003369,0.02885511,-0.20275564,-7.7250004,7.65,-32.41875
1763129447040,-1.4656038,3.3870404,9.734002,0.051923506,0.16890411,-0.03084867,0.19003369,0.02885511,-0.20275564,-7.7250004,7.65,-32.41875
1763129447041,-1.4656038,3.3870404,9.734002,0.051923506,0.16890411,-0.03084867,0.1908325,0.030526308,-0.2027978,-7.7250004,7.65,-32.41875
1763129447042,-1.6941184,2.9084759,8.933005,0.051923506,0.16890411,-0.03084867,0.1908325,0.030526308,-0.2027978,-7.7250004,7.65,-32.41875
1763129447059,-1.6941184,2.9084759,8.933005,0.051923506,0.16890411,-0.03084867,0.1908325,0.030526308,-0.2027978,-8.4375,7.9875,-30.45
