timestamp,accX,accY,accZ,gyroX,gyroY,gyroZ,rotX,rotY,rotZ,magX,magY,magZ
1763129293107,-5.48076,6.069993,5.229514,-0.3978257,0.1631009,-0.13408482,0.44791135,-0.05203789,-0.68373066,18.7875,-18.581251,-21.618752
1763129293107,-6.283552,5.8863435,2.6811578,-0.3978257,0.1631009,-0.13408482,0.44791135,-0.05203789,-0.68373066,18.7875,-18.581251,-21.618752
1763129293117,-6.283552,5.8863435,2.6811578,-0.3978257,0.1631009,-0.13408482,0.44693595,-0.04732544,-0.6834883,18.7875,-18.581251,-21.618752
1763129293117,-6.283552,5.8863435,2.6811578,-0.3978257,0.1631009,-0.13408482,0.44693595,-0.04732544,-0.6834883,16.95,-21.4125,-21.5625
1763129293127,-6.283552,5.8863435,2.6811578,-0.52488554,-0.9164499,-0.14065161,0.44693595,-0.04732544,-0.6834883,16.95,-21.4125,-21.5625
1763129293127,-5.3216376,6.096912,3.3804603,-0.52488554,-0.9164499,-0.14065161,0.44693595,-0.04732544,-0.6834883,16.95,-21.4125,-21.5625
1763129293137,-5.3216376,6.096912,3.3804603,-0.52488554,-0.9164499,-0.14065161,0.44693595,-0.04732544,-0.6834883,18.712502,-21.018751,-24.018751
1763129293138,-5.3216376,6.096912,3.3804603,-0.52488554,-0.9164499,-0.14065161,0.43808272,-0.047354616,-0.68722755,18.712502,-21.018751,-24.018751
1763129293148,-5.3216376,6.096912,3.3804603,-0.5027417,-1.7056872,-0.26801693,0.43808272,-0.047354616,-0.68722755,18.712502,-21.018751,-24.018751
1763129293149,-4.8993044,6.235696,5.3856454,-0.5027417,-1.7056872,-0.26801693,0.43808272,-0.047354616,-0.68722755,18.712502,-21.018751,-24.018751
1763129293158,-4.8993044,6.235696,5.3856454,-0.5027417,-1.7056872,-0.26801693,0.4234887,-0.051987126,-0.6952343,18.712502,-21.018751,-24.018751
1763129293158,-4.8993044,6.235696,5.3856454,-0.5027417,-1.7056872,-0.26801693,0.4234887,-0.051987126,-0.6952343,17.868752,-18.16875,-25.031252
1763129293169,-4.8993044,6.235696,5.3856454,-0.46166107,-1.8515311,-0.40500334,0.4234887,-0.051987126,-0.6952343,17.868752,-18.16875,-25.031252
1763129293171,-4.490132,5.610571,7.2532434,-0.46166107,-1.8515311,-0.40500334,0.4234887,-0.051987126,-0.6952343,17.868752,-18.16875,-25.031252
1763129293179,-4.490132,5.610571,7.2532434,-0.46166107,-1.8515311,-0.40500334,0.4076436,-0.05768435,-0.70510715,17.868752,-18.16875,-25.031252
1763129293180,-4.490132,5.610571,7.2532434,-0.46166107,-1.8515311,-0.40500334,0.4076436,-0.05768435,-0.70510715,17.79375,-19.3125,-25.2
1763129293192,-4.490132,5.610571,7.2532434,-0.36071566,-1.3987277,-0.43233955,0.4076436,-0.05768435,-0.70510715,17.79375,-19.3125,-25.2
1763129293193,-3.8991046,5.255835,8.493324,-0.36071566,-1.3987277,-0.43233955,0.4076436,-0.05768435,-0.70510715,17.79375,-19.3125,-25.2
1763129293197,-3.8991046,5.255835,8.493324,-0.36071566,-1.3987277,-0.43233955,0.39518934,-0.06178911,-0.7139395,17.79375,-19.3125,-25.2
1763129293198,-3.8991046,5.255835,8.493324,-0.36071566,-1.3987277,-0.43233955,0.39518934,-0.06178911,-0.7139395,19.237501,-18.675001,-26.00625
1763129293211,-3.8991046,5.255835,8.493324,-0.3081813,-0.8518509,-0.45677415,0.39518934,-0.06178911,-0.7139395,19.237501,-18.675001,-26.00625
1763129293212,-3.9014974,5.15414,7.570891,-0.3081813,-0.8518509,-0.45677415,0.39518934,-0.06178911,-0.7139395,19.237501,-18.675001,-26.00625
1763129293218,-3.9014974,5.15414,7.570891,-0.3081813,-0.8518509,-0.45677415,0.38677236,-0.06310461,-0.72090364,19.237501,-18.675001,-26.00625
1763129293218,-3.9014974,5.15414,7.570891,-0.3081813,-0.8518509,-0.45677415,0.38677236,-0.06310461,-0.72090364,16.650002,-17.6625,-25.968752
1763129293234,-3.9014974,5.15414,7.570891,-0.29458955,-0.74464417,-0.45097092,0.38677236,-0.06310461,-0.72090364,16.650002,-17.6625,-25.968752
1763129293235,-4.4811587,5.157729,6.411568,-0.29458955,-0.74464417,-0.45097092,0.38677236,-0.06310461,-0.72090364,16.650002,-17.6625,-25.968752
1763129293238,-4.4811587,5.157729,6.411568,-0.29458955,-0.74464417,-0.45097092,0.37944797,-0.06350882,-0.72666025,16.650002,-17.6625,-25.968752
1763129293239,-4.4811587,5.157729,6.411568,-0.29458955,-0.74464417,-0.45097092,0.37944797,-0.06350882,-0.72666025,15.806251,-18.018751,-25.518751
1763129293253,-4.4811587,5.157729,6.411568,-0.3110829,-0.9844086,-0.42897978,0.37944797,-0.06350882,-0.72666025,15.806251,-18.018751,-25.518751
1763129293255,-4.7539406,5.339584,6.0987067,-0.3110829,-0.9844086,-0.42897978,0.37944797,-0.06350882,-0.72666025,15.806251,-18.018751,-25.518751
1763129293259,-4.7539406,5.339584,6.0987067,-0.3110829,-0.9844086,-0.42897978,0.3705222,-0.064861506,-0.7324995,15.806251,-18.018751,-25.518751
1763129293260,-4.7539406,5.339584,6.0987067,-0.3110829,-0.9844086,-0.42897978,0.3705222,-0.064861506,-0.7324995,15.375001,-17.643751,-26.362501
1763129293275,-4.6504507,5.3587265,6.937989,-0.3110829,-0.9844086,-0.42897978,0.3705222,-0.064861506,-0.7324995,15.375001,-17.643751,-26.362501
1763129293276,-4.6504507,5.3587265,6.937989,-0.3489565,-1.1783582,-0.43676832,0.3705222,-0.064861506,-0.7324995,15.375001,-17.643751,-26.362501
1763129293278,-4.6504507,5.3587265,6.937989,-0.3489565,-1.1783582,-0.43676832,0.3705222,-0.064861506,-0.7324995,14.718751,-19.087502,-27.075
1763129293279,-4.6504507,5.3587265,6.937989,-0.3489565,-1.1783582,-0.43676832,0.3600093,-0.0669575,-0.7388417,14.718751,-19.087502,-27.075
1763129293295,-4.6504507,5.3587265,6.937989,-0.26908594,-1.2098176,-0.48349947,0.3600093,-0.0669575,-0.7388417,14.718751,-19.087502,-27.075
1763129293296,-4.4410787,5.1529436,7.800602,-0.26908594,-1.2098176,-0.48349947,0.3600093,-0.0669575,-0.7388417,14.718751,-19.087502,-27.075
1763129293299,-4.4410787,5.1529436,7.800602,-0.26908594,-1.2098176,-0.48349947,0.34961385,-0.06964798,-0.74533665,14.718751,-19.087502,-27.075
1763129293301,-4.4410787,5.1529436,7.800602,-0.26908594,-1.2098176,-0.48349947,0.34961385,-0.06964798,-0.74533665,13.200001,-17.6625,-26.531252
1763129293317,-4.4410787,5.1529436,7.800602,-0.18157956,-1.095586,-0.54916745,0.34961385,-0.06964798,-0.74533665,13.200001,-17.6625,-26.531252
1763129293318,-4.499703,4.837091,8.1020975,-0.18157956,-1.095586,-0.54916745,0.34961385,-0.06964798,-0.74533665,13.200001,-17.6625,-26.531252
1763129293319,-4.499703,4.837091,8.1020975,-0.18157956,-1.095586,-0.54916745,0.34043902,-0.07230747,-0.75200903,13.200001,-17.6625,-26.531252
1763129293319,-4.499703,4.837091,8.1020975,-0.18157956,-1.095586,-0.54916745,0.34043902,-0.07230747,-0.75200903,13.575001,-17.587502,-27.206251
1763129293338,-4.4207397,4.377669,7.9310107,-0.18157956,-1.095586,-0.54916745,0.34043902,-0.07230747,-0.75200903,13.575001,-17.587502,-27.206251
1763129293339,-4.4207397,4.377669,7.9310107,-0.18035783,-0.8982767,-0.5592467,0.34043902,-0.07230747,-0.75200903,13.575001,-17.587502,-27.206251
1763129293340,-4.4207397,4.377669,7.9310107,-0.18035783,-0.8982767,-0.5592467,0.33274645,-0.07377789,-0.75806254,13.575001,-17.587502,-27.206251
1763129293340,-4.4207397,4.377669,7.9310107,-0.18035783,-0.8982767,-0.5592467,0.33274645,-0.07377789,-0.75806254,9.993751,-19.050001,-26.6625
1763129293358,-4.4207397,4.377669,7.9310107,-0.18585561,-0.7999274,-0.49373147,0.33274645,-0.07377789,-0.75806254,9.993751,-19.050001,-26.6625
1763129293359,-4.4207397,4.377669,7.9310107,-0.18585561,-0.7999274,-0.49373147,0.32569957,-0.07489588,-0.76349205,9.993751,-19.050001,-26.6625
1763129293359,-4.4207397,4.377669,7.9310107,-0.18585561,-0.7999274,-0.49373147,0.32569957,-0.07489588,-0.76349205,9.731251,-18.956251,-27.675001
1763129293359,-4.1808596,4.2945185,7.838887,-0.18585561,-0.7999274,-0.49373147,0.32569957,-0.07489588,-0.76349205,9.731251,-18.956251,-27.675001
1763129293378,-4.1808596,4.2945185,7.838887,-0.18585561,-0.7999274,-0.49373147,0.32569957,-0.07489588,-0.76349205,9.243751,-17.475,-28.218752
1763129293379,-4.1808596,4.2945185,7.838887,-0.1632536,-0.8042035,-0.42287114,0.32569957,-0.07489588,-0.76349205,9.243751,-17.475,-28.218752
1763129293380,-4.1808596,4.2945185,7.838887,-0.1632536,-0.8042035,-0.42287114,0.31860903,-0.07670259,-0.7687989,9.243751,-17.475,-28.218752
1763129293381,-3.9421754,4.3674994,7.7036924,-0.1632536,-0.8042035,-0.42287114,0.31860903,-0.07670259,-0.7687989,9.243751,-17.475,-28.218752
1763129293397,-3.9421754,4.3674994,7.7036924,-0.1632536,-0.8042035,-0.42287114,0.31860903,-0.07670259,-0.7687989,10.5,-18.150002,-28.575
1763129293401,-3.9421754,4.3674994,7.7036924,-0.16752967,-0.79626226,-0.3695732,0.31860903,-0.07670259,-0.7687989,10.5,-18.150002,-28.575
1763129293402,-3.9421754,4.3674994,7.7036924,-0.16752967,-0.79626226,-0.3695732,0.31155372,-0.07847695,-0.77337414,10.5,-18.150002,-28.575
1763129293404,-3.7950168,4.436293,7.6073813,-0.16752967,-0.79626226,-0.3695732,0.31155372,-0.07847695,-0.77337414,10.5,-18.150002,-28.575
1763129293418,-3.7950168,4.436293,7.6073813,-0.16752967,-0.79626226,-0.3695732,0.31155372,-0.07847695,-0.77337414,9.168751,-17.962502,-26.8875
1763129293421,-3.7950168,4.436293,7.6073813,-0.19822562,-0.8411608,-0.3527744,0.31155372,-0.07847695,-0.77337414,9.168751,-17.962502,-26.8875
1763129293422,-3.7950168,4.436293,7.6073813,-0.19822562,-0.8411608,-0.3527744,0.30394232,-0.08037752,-0.77798283,9.168751,-17.962502,-26.8875
1763129293423,-3.5413775,4.578068,7.238887,-0.19822562,-0.8411608,-0.3527744,0.30394232,-0.08037752,-0.77798283,9.168751,-17.962502,-26.8875
1763129293438,-3.5413775,4.578068,7.238887,-0.19822562,-0.8411608,-0.3527744,0.30394232,-0.08037752,-0.77798283,9.900001,-16.837502,-28.650002
1763129293442,-3.5413775,4.578068,7.238887,-0.19822562,-0.8411608,-0.3527744,0.29467356,-0.082715645,-0.7833245,9.900001,-16.837502,-28.650002
1763129293443,-3.5413775,4.578068,7.238887,-0.25854853,-1.0093013,-0.39263335,0.29467356,-0.082715645,-0.7833245,9.900001,-16.837502,-28.650002
1763129293444,-3.260819,4.7216372,7.173682,-0.25854853,-1.0093013,-0.39263335,0.29467356,-0.082715645,-0.7833245,9.900001,-16.837502,-28.650002
1763129293459,-3.260819,4.7216372,7.173682,-0.25854853,-1.0093013,-0.39263335,0.29467356,-0.082715645,-0.7833245,8.962501,-15.76875,-29.19375
1763129293463,-3.260819,4.7216372,7.173682,-0.25854853,-1.0093013,-0.39263335,0.28368843,-0.08563198,-0.78938115,8.962501,-15.76875,-29.19375
1763129293464,-3.034099,4.779065,7.1916285,-0.25854853,-1.0093013,-0.39263335,0.28368843,-0.08563198,-0.78938115,8.962501,-15.76875,-29.19375
1763129293465,-3.034099,4.779065,7.1916285,-0.2849684,-1.211803,-0.479987,0.28368843,-0.08563198,-0.78938115,8.962501,-15.76875,-29.19375
1763129293477,-3.034099,4.779065,7.1916285,-0.2849684,-1.211803,-0.479987,0.28368843,-0.08563198,-0.78938115,7.8375,-16.6875,-29.1375
1763129293484,-3.034099,4.779065,7.1916285,-0.2849684,-1.211803,-0.479987,0.27096447,-0.089418225,-0.7961576,7.8375,-16.6875,-29.1375
1763129293485,-3.034099,4.779065,7.1916285,-0.28451028,-1.4332415,-0.5743656,0.27096447,-0.089418225,-0.7961576,7.8375,-16.6875,-29.1375
1763129293486,-3.01376,4.699504,7.4530444,-0.28451028,-1.4332415,-0.5743656,0.27096447,-0.089418225,-0.7961576,7.8375,-16.6875,-29.1375
1763129293498,-3.01376,4.699504,7.4530444,-0.28451028,-1.4332415,-0.5743656,0.27096447,-0.089418225,-0.7961576,6.3750005,-15.562501,-28.968752
1763129293505,-3.01376,4.699504,7.4530444,-0.2083049,-1.5444189,-0.6345358,0.27096447,-0.089418225,-0.7961576,6.3750005,-15.562501,-28.968752
1763129293507,-2.949752,4.563711,7.880163,-0.2083049,-1.5444189,-0.6345358,0.27096447,-0.089418225,-0.7961576,6.3750005,-15.562501,-28.968752
1763129293518,-2.949752,4.563711,7.880163,-0.2083049,-1.5444189,-0.6345358,0.27096447,-0.089418225,-0.7961576,5.3812504,-16.59375,-28.218752
1763129293519,-2.949752,4.563711,7.880163,-0.2083049,-1.5444189,-0.6345358,0.2576862,-0.09442985,-0.80362564,5.3812504,-16.59375,-28.218752
1763129293526,-2.949752,4.563711,7.880163,-0.1472184,-1.7264566,-0.7046325,0.2576862,-0.09442985,-0.80362564,5.3812504,-16.59375,-28.218752
1763129293526,-2.7074788,4.341777,7.8741813,-0.1472184,-1.7264566,-0.7046325,0.2576862,-0.09442985,-0.80362564,5.3812504,-16.59375,-28.218752
1763129293537,-2.7074788,4.341777,7.8741813,-0.1472184,-1.7264566,-0.7046325,0.24317071,-0.10075937,-0.81175655,5.3812504,-16.59375,-28.218752
1763129293538,-2.7074788,4.341777,7.8741813,-0.1472184,-1.7264566,-0.7046325,0.24317071,-0.10075937,-0.81175655,3.8625002,-17.4375,-27.69375
1763129293547,-2.7074788,4.341777,7.8741813,-0.3101666,-1.8781037,-0.7510582,0.24317071,-0.10075937,-0.81175655,3.8625002,-17.4375,-27.69375
1763129293549,-2.6045876,4.0534415,8.526823,-0.3101666,-1.8781037,-0.7510582,0.24317071,-0.10075937,-0.81175655,3.8625002,-17.4375,-27.69375
1763129293558,-2.6045876,4.0534415,8.526823,-0.3101666,-1.8781037,-0.7510582,0.22643054,-0.106376424,-0.8203982,3.8625002,-17.4375,-27.69375
1763129293559,-2.6045876,4.0534415,8.526823,-0.3101666,-1.8781037,-0.7510582,0.22643054,-0.106376424,-0.8203982,1.5937501,-18.28125,-29.343752
1763129293568,-2.6045876,4.0534415,8.526823,-0.7008146,-1.3843724,-0.7786999,0.22643054,-0.106376424,-0.8203982,1.5937501,-18.28125,-29.343752
1763129293569,-2.5908287,3.4630125,9.858429,-0.7008146,-1.3843724,-0.7786999,0.22643054,-0.106376424,-0.8203982,1.5937501,-18.28125,-29.343752
1763129293578,-2.5908287,3.4630125,9.858429,-0.7008146,-1.3843724,-0.7786999,0.21169761,-0.10588999,-0.8283372,1.5937501,-18.28125,-29.343752
1763129293579,-2.5908287,3.4630125,9.858429,-0.7008146,-1.3843724,-0.7786999,0.21169761,-0.10588999,-0.8283372,0.54375005,-18.35625,-26.775002
1763129293589,-2.5908287,3.4630125,9.858429,-0.7874047,-0.90377444,-0.6809615,0.21169761,-0.10588999,-0.8283372,0.54375005,-18.35625,-26.775002
1763129293591,-2.673381,3.1459637,10.099506,-0.7874047,-0.90377444,-0.6809615,0.21169761,-0.10588999,-0.8283372,0.54375005,-18.35625,-26.775002
1763129293601,-2.673381,3.1459637,10.099506,-0.7874047,-0.90377444,-0.6809615,0.20027491,-0.10230455,-0.8350516,0.54375005,-18.35625,-26.775002
1763129293602,-2.673381,3.1459637,10.099506,-0.7874047,-0.90377444,-0.6809615,0.20027491,-0.10230455,-0.8350516,-1.1625,-18.75,-27.91875
1763129293610,-2.673381,3.1459637,10.099506,-0.5833759,-0.8101594,-0.5416843,0.20027491,-0.10230455,-0.8350516,-1.1625,-18.75,-27.91875
1763129293611,-2.836093,2.705086,9.631709,-0.5833759,-0.8101594,-0.5416843,0.20027491,-0.10230455,-0.8350516,-1.1625,-18.75,-27.91875
1763129293619,-2.836093,2.705086,9.631709,-0.5833759,-0.8101594,-0.5416843,0.19055694,-0.10022853,-0.84052366,-1.1625,-18.75,-27.91875
1763129293619,-2.836093,2.705086,9.631709,-0.5833759,-0.8101594,-0.5416843,0.19055694,-0.10022853,-0.84052366,-0.54375005,-17.00625,-28.2
1763129293631,-2.8187451,2.8809586,9.486943,-0.5833759,-0.8101594,-0.5416843,0.19055694,-0.10022853,-0.84052366,-0.54375005,-17.00625,-28.2
1763129293632,-2.8187451,2.8809586,9.486943,-0.3121519,-1.0887138,-0.3358229,0.19055694,-0.10022853,-0.84052366,-0.54375005,-17.00625,-28.2
1763129293637,-2.8187451,2.8809586,9.486943,-0.3121519,-1.0887138,-0.3358229,0.1796453,-0.1022641,-0.84501046,-0.54375005,-17.00625,-28.2
1763129293638,-2.8187451,2.8809586,9.486943,-0.3121519,-1.0887138,-0.3358229,0.1796453,-0.1022641,-0.84501046,-1.5375,-16.44375,-27.900002
1763129293652,-2.8187451,2.8809586,9.486943,-0.082924895,-1.0312924,-0.2423606,0.1796453,-0.1022641,-0.84501046,-1.5375,-16.44375,-27.900002
1763129293653,-2.2618155,3.6670008,10.372288,-0.082924895,-1.0312924,-0.2423606,0.1796453,-0.1022641,-0.84501046,-1.5375,-16.44375,-27.900002
1763129293659,-2.2618155,3.6670008,10.372288,-0.082924895,-1.0312924,-0.2423606,0.1704151,-0.1061619,-0.84835243,-1.5375,-16.44375,-27.900002
1763129293660,-2.2618155,3.6670008,10.372288,-0.082924895,-1.0312924,-0.2423606,0.1704151,-0.1061619,-0.84835243,-2.49375,-16.96875,-27.112501
1763129293673,-2.2618155,3.6670008,10.372288,0.066889696,-0.6960804,-0.22663084,0.1704151,-0.1061619,-0.84835243,-2.49375,-16.96875,-27.112501
1763129293674,-1.7353946,3.5012977,10.073783,0.066889696,-0.6960804,-0.22663084,0.1704151,-0.1061619,-0.84835243,-2.49375,-16.96875,-27.112501
1763129293678,-1.7353946,3.5012977,10.073783,0.066889696,-0.6960804,-0.22663084,0.16484186,-0.10984594,-0.8506993,-2.49375,-16.96875,-27.112501
1763129293679,-1.7353946,3.5012977,10.073783,0.066889696,-0.6960804,-0.22663084,0.16484186,-0.10984594,-0.8506993,-2.1375,-15.13125,-27.806252
1763129293694,-1.7353946,3.5012977,10.073783,0.07956514,-0.42088583,-0.23228133,0.16484186,-0.10984594,-0.8506993,-2.1375,-15.13125,-27.806252
1763129293695,-1.6061822,3.257828,9.136993,0.07956514,-0.42088583,-0.23228133,0.16484186,-0.10984594,-0.8506993,-2.1375,-15.13125,-27.806252
1763129293700,-1.6061822,3.257828,9.136993,0.07956514,-0.42088583,-0.23228133,0.16167185,-0.112301365,-0.8526674,-2.1375,-15.13125,-27.806252
1763129293701,-1.6061822,3.257828,9.136993,0.07956514,-0.42088583,-0.23228133,0.16167185,-0.112301365,-0.8526674,-2.8500001,-16.25625,-28.181252
1763129293715,-1.6061822,3.257828,9.136993,-0.06918044,-0.47128218,-0.20097451,0.16167185,-0.112301365,-0.8526674,-2.8500001,-16.25625,-28.181252
1763129293716,-1.7868403,3.1046875,8.435298,-0.06918044,-0.47128218,-0.20097451,0.16167185,-0.112301365,-0.8526674,-2.8500001,-16.25625,-28.181252
1763129293717,-1.7868403,3.1046875,8.435298,-0.06918044,-0.47128218,-0.20097451,0.1573139,-0.113712415,-0.85462147,-2.8500001,-16.25625,-28.181252
1763129293720,-1.7868403,3.1046875,8.435298,-0.06918044,-0.47128218,-0.20097451,0.1573139,-0.113712415,-0.85462147,-3.54375,-17.53125,-27.281252
1763129293736,-1.7868403,3.1046875,8.435298,-0.28725916,-0.6693551,-0.11346813,0.1573139,-0.113712415,-0.85462147,-3.54375,-17.53125,-27.281252
1763129293737,-1.8233309,3.0083764,8.569296,-0.28725916,-0.6693551,-0.11346813,0.1573139,-0.113712415,-0.85462147,-3.54375,-17.53125,-27.281252
1763129293738,-1.8233309,3.0083764,8.569296,-0.28725916,-0.6693551,-0.11346813,0.15011582,-0.11423616,-0.8565013,-3.54375,-17.53125,-27.281252
1763129293740,-1.8233309,3.0083764,8.569296,-0.28725916,-0.6693551,-0.11346813,0.15011582,-0.11423616,-0.8565013,-3.4125001,-18.31875,-27.487501
1763129293759,-1.8233309,3.0083764,8.569296,-0.37827802,-0.77564555,-0.012064579,0.15011582,-0.11423616,-0.8565013,-3.4125001,-18.31875,-27.487501
1763129293760,-1.8233309,3.0083764,8.569296,-0.37827802,-0.77564555,-0.012064579,0.1414024,-0.1145945,-0.8580737,-3.4125001,-18.31875,-27.487501
1763129293761,-1.8233309,3.0083764,8.569296,-0.37827802,-0.77564555,-0.012064579,0.1414024,-0.1145945,-0.8580737,-4.1062503,-16.3875,-27.6
1763129293762,-1.599602,3.0352955,9.144172,-0.37827802,-0.77564555,-0.012064579,0.1414024,-0.1145945,-0.8580737,-4.1062503,-16.3875,-27.6
1763129293779,-1.599602,3.0352955,9.144172,-0.37827802,-0.77564555,-0.012064579,0.13295735,-0.11520216,-0.8589983,-4.1062503,-16.3875,-27.6
1763129293780,-1.599602,3.0352955,9.144172,-0.37827802,-0.77564555,-0.012064579,0.13295735,-0.11520216,-0.8589983,-4.1062503,-16.3875,-27.6
1763129293781,-1.2047862,2.9862428,9.2590275,-0.37827802,-0.77564555,-0.012064579,0.13295735,-0.11520216,-0.8589983,-4.1062503,-16.3875,-27.6
1763129293782,-1.2047862,2.9862428,9.2590275,-0.35017824,-0.7382301,0.10155627,0.13295735,-0.11520216,-0.8589983,-4.1062503,-16.3875,-27.6
1763129293797,-1.2047862,2.9862428,9.2590275,-0.35017824,-0.7382301,0.10155627,0.13295735,-0.11520216,-0.8589983,-7.5375004,-17.475,-25.143751
1763129293802,-1.2047862,2.9862428,9.2590275,-0.35017824,-0.7382301,0.10155627,0.1253312,-0.116049714,-0.8595447,-7.5375004,-17.475,-25.143751
1763129293803,-1.2047862,2.9862428,9.2590275,-0.29352054,-0.66355187,0.14569125,0.1253312,-0.116049714,-0.8595447,-7.5375004,-17.475,-25.143751
1763129293804,-0.8650054,3.1022944,9.271589,-0.29352054,-0.66355187,0.14569125,0.1253312,-0.116049714,-0.8595447,-7.5375004,-17.475,-25.143751
1763129293819,-0.8650054,3.1022944,9.271589,-0.29352054,-0.66355187,0.14569125,0.1253312,-0.116049714,-0.8595447,-8.175,-18.28125,-25.575
1763129293820,-0.8650054,3.1022944,9.271589,-0.23533566,-0.56169015,0.10583232,0.1253312,-0.116049714,-0.8595447,-8.175,-18.28125,-25.575
1763129293821,-0.8650054,3.1022944,9.271589,-0.23533566,-0.56169015,0.10583232,0.11893303,-0.1169096,-0.86002487,-8.175,-18.28125,-25.575
1763129293823,-0.8213364,3.2416766,9.382855,-0.23533566,-0.56169015,0.10583232,0.11893303,-0.1169096,-0.86002487,-8.175,-18.28125,-25.575
1763129293837,-0.8213364,3.2416766,9.382855,-0.23533566,-0.56169015,0.10583232,0.11893303,-0.1169096,-0.86002487,-7.0687504,-17.212502,-25.5375
1763129293840,-0.8213364,3.2416766,9.382855,-0.18402301,-0.4083631,0.033597562,0.11893303,-0.1169096,-0.86002487,-7.0687504,-17.212502,-25.5375
1763129293841,-0.8213364,3.2416766,9.382855,-0.18402301,-0.4083631,0.033597562,0.1143016,-0.117374375,-0.8605178,-7.0687504,-17.212502,-25.5375
1763129293843,-0.7160522,3.3403804,9.352945,-0.18402301,-0.4083631,0.033597562,0.1143016,-0.117374375,-0.8605178,-7.0687504,-17.212502,-25.5375
1763129293859,-0.7160522,3.3403804,9.352945,-0.18402301,-0.4083631,0.033597562,0.1143016,-0.117374375,-0.8605178,-8.418751,-18.337502,-26.081251
1763129293862,-0.7160522,3.3403804,9.352945,-0.15897755,-0.24373505,-0.022143848,0.1143016,-0.117374375,-0.8605178,-8.418751,-18.337502,-26.081251
1763129293864,-0.71306115,2.9443684,9.625728,-0.15897755,-0.24373505,-0.022143848,0.1143016,-0.117374375,-0.8605178,-8.418751,-18.337502,-26.081251
1763129293866,-0.71306115,2.9443684,9.625728,-0.15897755,-0.24373505,-0.022143848,0.11136723,-0.11719194,-0.8610004,-8.418751,-18.337502,-26.081251
1763129293877,-0.71306115,2.9443684,9.625728,-0.15897755,-0.24373505,-0.022143848,0.11136723,-0.11719194,-0.8610004,-8.512501,-17.868752,-25.031252
1763129293883,-0.71306115,2.9443684,9.625728,-0.15897755,-0.24373505,-0.022143848,0.10886194,-0.117279194,-0.8612819,-8.512501,-17.868752,-25.031252
1763129293884,-0.71306115,2.9443684,9.625728,-0.108886644,-0.20616686,0.03497201,0.10886194,-0.117279194,-0.8612819,-8.512501,-17.868752,-25.031252
1763129293885,-0.8021938,2.6428726,9.470792,-0.108886644,-0.20616686,0.03497201,0.10886194,-0.117279194,-0.8612819,-8.512501,-17.868752,-25.031252
1763129293898,-0.8021938,2.6428726,9.470792,-0.108886644,-0.20616686,0.03497201,0.10886194,-0.117279194,-0.8612819,-8.64375,-16.931252,-25.9125
1763129293904,-0.8021938,2.6428726,9.470792,0.011148282,-0.38698283,0.09758565,0.10886194,-0.117279194,-0.8612819,-8.64375,-16.931252,-25.9125
1763129293905,-0.8021938,2.6428726,9.470792,0.011148282,-0.38698283,0.09758565,0.105248496,-0.11937082,-0.8613615,-8.64375,-16.931252,-25.9125
1763129293907,-0.7262217,2.8965118,9.4019985,0.011148282,-0.38698283,0.09758565,0.105248496,-0.11937082,-0.8613615,-8.64375,-16.931252,-25.9125
1763129293918,-0.7262217,2.8965118,9.4019985,0.011148282,-0.38698283,0.09758565,0.105248496,-0.11937082,-0.8613615,-8.0625,-16.5,-26.625002
1763129293924,-0.7262217,2.8965118,9.4019985,0.011148282,-0.38698283,0.09758565,0.10294757,-0.1221013,-0.8612555,-8.0625,-16.5,-26.625002
1763129293925,-0.7262217,2.8965118,9.4019985,0.123089254,-0.31428993,0.06627883,0.10294757,-0.1221013,-0.8612555,-8.0625,-16.5,-26.625002
1763129293927,-0.6113662,3.03051,9.556933,0.123089254,-0.31428993,0.06627883,0.10294757,-0.1221013,-0.8612555,-8.0625,-16.5,-26.625002
1763129293939,-0.6113662,3.03051,9.556933,0.123089254,-0.31428993,0.06627883,0.10294757,-0.1221013,-0.8612555,-8.3625,-18.6375,-25.987501
1763129293946,-0.5521438,2.8235307,9.177671,0.123089254,-0.31428993,0.06627883,0.10294757,-0.1221013,-0.8612555,-8.3625,-18.6375,-25.987501
1763129293947,-0.5521438,2.8235307,9.177671,0.13897173,-0.062155493,0.027488915,0.10294757,-0.1221013,-0.8612555,-8.3625,-18.6375,-25.987501
1763129293958,-0.5521438,2.8235307,9.177671,0.13897173,-0.062155493,0.027488915,0.10303493,-0.12368218,-0.86105067,-8.3625,-18.6375,-25.987501
1763129293960,-0.5521438,2.8235307,9.177671,0.13897173,-0.062155493,0.027488915,0.10303493,-0.12368218,-0.86105067,-9.356251,-18.206251,-24.281252
1763129293967,-0.5521438,2.8235307,9.177671,0.10231985,-0.108886644,0.056352276,0.10303493,-0.12368218,-0.86105067,-9.356251,-18.206251,-24.281252
1763129293968,-0.62811595,2.8235307,9.019745,0.10231985,-0.108886644,0.056352276,0.10303493,-0.12368218,-0.86105067,-9.356251,-18.206251,-24.281252
1763129293978,-0.62811595,2.8235307,9.019745,0.10231985,-0.108886644,0.056352276,0.10245069,-0.1251883,-0.8608447,-9.356251,-18.206251,-24.281252
1763129293978,-0.62811595,2.8235307,9.019745,0.10231985,-0.108886644,0.056352276,0.10245069,-0.1251883,-0.8608447,-8.887501,-17.1375,-25.031252
1763129293988,-0.62811595,2.8235307,9.019745,0.090560704,-0.20173809,0.12721258,0.10245069,-0.1251883,-0.8608447,-8.887501,-17.1375,-25.031252
1763129293989,-0.6269195,2.925824,9.298509,0.090560704,-0.20173809,0.12721258,0.10245069,-0.1251883,-0.8608447,-8.887501,-17.1375,-25.031252
1763129294001,-0.6269195,2.925824,9.298509,0.090560704,-0.20173809,0.12721258,0.10091892,-0.12711467,-0.8603441,-8.887501,-17.1375,-25.031252
1763129294002,-0.6269195,2.925824,9.298509,0.090560704,-0.20173809,0.12721258,0.10091892,-0.12711467,-0.8603441,-10.087501,-18.900002,-27.337502
1763129294008,-0.6269195,2.925824,9.298509,0.105526894,-0.15546508,0.15347977,0.10091892,-0.12711467,-0.8603441,-10.087501,-18.900002,-27.337502
1763129294009,-0.40558344,3.1106694,9.266206,0.105526894,-0.15546508,0.15347977,0.10091892,-0.12711467,-0.8603441,-10.087501,-18.900002,-27.337502
1763129294018,-0.40558344,3.1106694,9.266206,0.105526894,-0.15546508,0.15347977,0.0998472,-0.1289623,-0.8596358,-10.087501,-18.900002,-27.337502
1763129294019,-0.40558344,3.1106694,9.266206,0.105526894,-0.15546508,0.15347977,0.0998472,-0.1289623,-0.8596358,-9.431251,-17.60625,-25.968752
1763129294030,-0.40558344,3.1106694,9.266206,0.11056653,-0.058032155,0.10949751,0.0998472,-0.1289623,-0.8596358,-9.431251,-17.60625,-25.968752
1763129294031,-0.381057,3.0472596,9.300303,0.11056653,-0.058032155,0.10949751,0.0998472,-0.1289623,-0.8596358,-9.431251,-17.60625,-25.968752
1763129294038,-0.381057,3.0472596,9.300303,0.11056653,-0.058032155,0.10949751,0.09972062,-0.13037185,-0.85901046,-9.431251,-17.60625,-25.968752
1763129294039,-0.381057,3.0472596,9.300303,0.11056653,-0.058032155,0.10949751,0.09972062,-0.13037185,-0.85901046,-7.7812505,-15.937501,-26.23125
1763129294051,-0.381057,3.0472596,9.300303,0.10491603,0.024587307,0.0980438,0.09972062,-0.13037185,-0.85901046,-7.7812505,-15.937501,-26.23125
1763129294052,-0.4019942,3.013162,9.065806,0.10491603,0.024587307,0.0980438,0.09972062,-0.13037185,-0.85901046,-7.7812505,-15.937501,-26.23125
1763129294058,-0.4019942,3.013162,9.065806,0.10491603,0.024587307,0.0980438,0.10029579,-0.13129026,-0.8584127,-7.7812505,-15.937501,-26.23125
1763129294059,-0.4019942,3.013162,9.065806,0.10491603,0.024587307,0.0980438,0.10029579,-0.13129026,-0.8584127,-9.6,-18.13125,-25.743752
1763129294072,-0.4019942,3.013162,9.065806,0.069485866,0.008857539,0.09468404,0.10029579,-0.13129026,-0.8584127,-9.6,-18.13125,-25.743752
1763129294073,-0.44685963,3.1423743,8.813364,0.069485866,0.008857539,0.09468404,0.10029579,-0.13129026,-0.8584127,-9.6,-18.13125,-25.743752
1763129294077,-0.44685963,3.1423743,8.813364,0.069485866,0.008857539,0.09468404,0.10057139,-0.1319628,-0.8578737,-9.6,-18.13125,-25.743752
1763129294077,-0.44685963,3.1423743,8.813364,0.069485866,0.008857539,0.09468404,0.10057139,-0.1319628,-0.8578737,-9.168751,-17.85,-24.018751
1763129294093,-0.44685963,3.1423743,8.813364,0.044898562,-0.10293072,0.10537417,0.10057139,-0.1319628,-0.8578737,-9.168751,-17.85,-24.018751
1763129294094,-0.40079778,3.275176,8.976674,0.044898562,-0.10293072,0.10537417,0.10057139,-0.1319628,-0.8578737,-9.168751,-17.85,-24.018751
1763129294100,-0.40079778,3.275176,8.976674,0.044898562,-0.10293072,0.10537417,0.09976931,-0.13300651,-0.8573181,-9.168751,-17.85,-24.018751
1763129294101,-0.40079778,3.275176,8.976674,0.044898562,-0.10293072,0.10537417,0.09976931,-0.13300651,-0.8573181,-8.0625,-16.5,-27.375002
1763129294114,-0.40079778,3.275176,8.976674,0.0481056,-0.1517999,0.090560704,0.09976931,-0.13300651,-0.8573181,-8.0625,-16.5,-27.375002
1763129294115,-0.24586253,3.3583267,9.205787,0.0481056,-0.1517999,0.090560704,0.09976931,-0.13300651,-0.8573181,-8.0625,-16.5,-27.375002
1763129294120,-0.24586253,3.3583267,9.205787,0.0481056,-0.1517999,0.090560704,0.098574236,-0.13432449,-0.85685754,-8.0625,-16.5,-27.375002
1763129294122,-0.24586253,3.3583267,9.205787,0.0481056,-0.1517999,0.090560704,0.098574236,-0.13432449,-0.85685754,-7.9500003,-15.656251,-26.362501
1763129294135,-0.24586253,3.3583267,9.205787,0.060475614,-0.089033544,0.03649917,0.098574236,-0.13432449,-0.85685754,-7.9500003,-15.656251,-26.362501
1763129294136,-0.23928227,3.3511481,9.287741,0.060475614,-0.089033544,0.03649917,0.098574236,-0.13432449,-0.85685754,-7.9500003,-15.656251,-26.362501
1763129294138,-0.23928227,3.3511481,9.287741,0.060475614,-0.089033544,0.03649917,0.098039694,-0.13540152,-0.8566277,-7.9500003,-15.656251,-26.362501
1763129294139,-0.23928227,3.3511481,9.287741,0.060475614,-0.089033544,0.03649917,0.098039694,-0.13540152,-0.8566277,-8.512501,-17.71875,-25.66875
1763129294156,-0.23928227,3.3511481,9.287741,0.045662142,-0.0140498895,0.020311253,0.098039694,-0.13540152,-0.8566277,-8.512501,-17.71875,-25.66875
1763129294157,-0.34456646,3.1710882,9.078369,0.045662142,-0.0140498895,0.020311253,0.098039694,-0.13540152,-0.8566277,-8.512501,-17.71875,-25.66875
1763129294159,-0.34456646,3.1710882,9.078369,0.045662142,-0.0140498895,0.020311253,0.098113656,-0.13593854,-0.8564462,-8.512501,-17.71875,-25.66875
1763129294161,-0.34456646,3.1710882,9.078369,0.045662142,-0.0140498895,0.020311253,0.098113656,-0.13593854,-0.8564462,-9.4125,-17.60625,-27.0375
1763129294178,-0.38285163,3.1692936,8.9348,0.045662142,-0.0140498895,0.020311253,0.098113656,-0.13593854,-0.8564462,-9.4125,-17.60625,-27.0375
1763129294180,-0.38285163,3.1692936,8.9348,0.045662142,-0.0140498895,0.020311253,0.0976989,-0.13617261,-0.856293,-9.4125,-17.60625,-27.0375
1763129294181,-0.38285163,3.1692936,8.9348,-0.0010690134,-0.04046979,0.0368046,0.0976989,-0.13617261,-0.856293,-9.4125,-17.60625,-27.0375
1763129294182,-0.38285163,3.1692936,8.9348,-0.0010690134,-0.04046979,0.0368046,0.0976989,-0.13617261,-0.856293,-6.6000004,-16.143751,-25.837502
1763129294198,-0.38285163,3.1692936,8.9348,-0.0010690134,-0.04046979,0.0368046,0.096214145,-0.13680393,-0.8563522,-6.6000004,-16.143751,-25.837502
1763129294199,-0.38285163,3.1692936,8.9348,-0.021074835,-0.1414152,0.057574004,0.096214145,-0.13680393,-0.8563522,-6.6000004,-16.143751,-25.837502
1763129294201,-0.38285163,3.1692936,8.9348,-0.021074835,-0.1414152,0.057574004,0.096214145,-0.13680393,-0.8563522,-7.8750005,-17.71875,-25.63125
1763129294203,-0.26021945,3.3032916,9.084352,-0.021074835,-0.1414152,0.057574004,0.096214145,-0.13680393,-0.8563522,-7.8750005,-17.71875,-25.63125
1763129294218,-0.26021945,3.3032916,9.084352,-0.021074835,-0.1414152,0.057574004,0.096214145,-0.13680393,-0.8563522,-9.01875,-18.618752,-24.525002
1763129294219,-0.26021945,3.3032916,9.084352,-0.0140498895,-0.12186752,0.023365578,0.096214145,-0.13680393,-0.8563522,-9.01875,-18.618752,-24.525002
1763129294220,-0.26021945,3.3032916,9.084352,-0.0140498895,-0.12186752,0.023365578,0.09500512,-0.13737437,-0.8564513,-9.01875,-18.618752,-24.525002
1763129294221,-0.12622139,3.3613176,9.277572,-0.0140498895,-0.12186752,0.023365578,0.09500512,-0.13737437,-0.8564513,-9.01875,-18.618752,-24.525002
1763129294237,-0.12622139,3.3613176,9.277572,-0.0140498895,-0.12186752,0.023365578,0.09500512,-0.13737437,-0.8564513,-8.94375,-17.493752,-25.556252
1763129294239,-0.12622139,3.3613176,9.277572,-0.009315688,-0.011606431,-0.021838415,0.09500512,-0.13737437,-0.8564513,-8.94375,-17.493752,-25.556252
1763129294241,-0.18305093,3.2273195,9.3308115,-0.009315688,-0.011606431,-0.021838415,0.09500512,-0.13737437,-0.8564513,-8.94375,-17.493752,-25.556252
1763129294258,-0.18305093,3.2273195,9.3308115,-0.009315688,-0.011606431,-0.021838415,0.09500512,-0.13737437,-0.8564513,-8.6625,-16.931252,-24.4125
1763129294262,-0.18305093,3.2273195,9.3308115,-0.0059559317,0.033902995,-0.02489274,0.09500512,-0.13737437,-0.8564513,-8.6625,-16.931252,-24.4125
1763129294264,-0.18305093,3.2273195,9.3308115,-0.0059559317,0.033902995,-0.02489274,0.09477142,-0.13764946,-0.85653013,-8.6625,-16.931252,-24.4125
1763129294265,-0.32243285,3.1998022,9.153743,-0.0059559317,0.033902995,-0.02489274,0.09477142,-0.13764946,-0.85653013,-8.6625,-16.931252,-24.4125
1763129294266,-0.32243285,3.1998022,9.153743,-0.0059559317,0.033902995,-0.02489274,0.09478144,-0.13755627,-0.8571162,-8.6625,-16.931252,-24.4125
1763129294278,-0.32243285,3.1998022,9.153743,-0.0059559317,0.033902995,-0.02489274,0.09478144,-0.13755627,-0.8571162,-8.83125,-17.15625,-27.581251
1763129294282,-0.32243285,3.1998022,9.153743,-0.020311253,-9.162972E-4,0.008093959,0.09478144,-0.13755627,-0.8571162,-8.83125,-17.15625,-27.581251
1763129294283,-0.44985065,3.0933216,9.061021,-0.020311253,-9.162972E-4,0.008093959,0.09478144,-0.13755627,-0.8571162,-8.83125,-17.15625,-27.581251
1763129294284,-0.44985065,3.0933216,9.061021,-0.020311253,-9.162972E-4,0.008093959,0.094719075,-0.13739435,-0.8571973,-8.83125,-17.15625,-27.581251
1763129294298,-0.44985065,3.0933216,9.061021,-0.020311253,-9.162972E-4,0.008093959,0.094719075,-0.13739435,-0.8571973,-8.25,-17.00625,-25.63125
1763129294303,-0.44985065,3.0933216,9.061021,-0.020311253,-9.162972E-4,0.008093959,0.094492674,-0.13700679,-0.85709965,-8.25,-17.00625,-25.63125
1763129294304,-0.2620141,3.2237303,9.090932,-0.020311253,-9.162972E-4,0.008093959,0.094492674,-0.13700679,-0.85709965,-8.25,-17.00625,-25.63125
1763129294305,-0.2620141,3.2237303,9.090932,-0.0368046,-0.025809037,0.034361143,0.094492674,-0.13700679,-0.85709965,-8.25,-17.00625,-25.63125
1763129294318,-0.2620141,3.2237303,9.090932,-0.0368046,-0.025809037,0.034361143,0.094492674,-0.13700679,-0.85709965,-7.5750003,-15.731251,-25.312502
1763129294325,-0.2620141,3.2237303,9.090932,-0.0368046,-0.025809037,0.034361143,0.09419424,-0.13658702,-0.85715806,-7.5750003,-15.731251,-25.312502
1763129294326,-0.2620141,3.2237303,9.090932,-0.06307179,-0.0067195124,-0.008704823,0.09419424,-0.13658702,-0.85715806,-7.5750003,-15.731251,-25.312502
1763129294328,-0.13579269,3.3433714,9.208778,-0.06307179,-0.0067195124,-0.008704823,0.09419424,-0.13658702,-0.85715806,-7.5750003,-15.731251,-25.312502
1763129294338,-0.13579269,3.3433714,9.208778,-0.06307179,-0.0067195124,-0.008704823,0.09419424,-0.13658702,-0.85715806,-8.475,-16.425001,-25.85625
1763129294345,-0.13579269,3.3433714,9.208778,-0.0716239,-0.006261364,-0.032223117,0.09419424,-0.13658702,-0.85715806,-8.475,-16.425001,-25.85625
1763129294346,-0.13579269,3.3433714,9.208778,-0.0716239,-0.006261364,-0.032223117,0.09378543,-0.13629201,-0.8572588,-8.475,-16.425001,-25.85625
1763129294348,-0.32183465,3.1663027,9.245867,-0.0716239,-0.006261364,-0.032223117,0.09378543,-0.13629201,-0.8572588,-8.475,-16.425001,-25.85625
1763129294358,-0.32183465,3.1663027,9.245867,-0.0716239,-0.006261364,-0.032223117,0.09378543,-0.13629201,-0.8572588,-8.775001,-16.0125,-26.812502
1763129294366,-0.32183465,3.1663027,9.245867,-0.045967575,0.007941242,-0.012064579,0.09378543,-0.13629201,-0.8572588,-8.775001,-16.0125,-26.812502
1763129294367,-0.43070808,3.0735807,9.409775,-0.045967575,0.007941242,-0.012064579,0.09378543,-0.13629201,-0.8572588,-8.775001,-16.0125,-26.812502
1763129294379,-0.43070808,3.0735807,9.409775,-0.045967575,0.007941242,-0.012064579,0.09364884,-0.13581848,-0.85758203,-8.775001,-16.0125,-26.812502
1763129294380,-0.43070808,3.0735807,9.409775,-0.045967575,0.007941242,-0.012064579,0.09364884,-0.13581848,-0.85758203,-9.09375,-17.212502,-26.587502
1763129294387,-0.43070808,3.0735807,9.409775,-0.012370012,0.041233372,0.026419902,0.09364884,-0.13581848,-0.85758203,-9.09375,-17.212502,-26.587502
1763129294388,-0.4001996,3.0502508,9.27817,-0.012370012,0.041233372,0.026419902,0.09364884,-0.13581848,-0.85758203,-9.09375,-17.212502,-26.587502
1763129294397,-0.4001996,3.0502508,9.27817,-0.012370012,0.041233372,0.026419902,0.09390472,-0.1352673,-0.8578567,-9.09375,-17.212502,-26.587502
1763129294398,-0.4001996,3.0502508,9.27817,-0.012370012,0.041233372,0.026419902,0.09390472,-0.1352673,-0.8578567,-8.45625,-16.575,-25.650002
1763129294408,-0.4001996,3.0502508,9.27817,-0.0010690134,0.04214967,0.021380268,0.09390472,-0.1352673,-0.8578567,-8.45625,-16.575,-25.650002
1763129294409,-0.15792629,3.295515,9.1052885,-0.0010690134,0.04214967,0.021380268,0.09390472,-0.1352673,-0.8578567,-8.45625,-16.575,-25.650002
1763129294417,-0.15792629,3.295515,9.1052885,-0.0010690134,0.04214967,0.021380268,0.09423952,-0.13484982,-0.857987,-8.45625,-16.575,-25.650002
1763129294418,-0.15792629,3.295515,9.1052885,-0.0010690134,0.04214967,0.021380268,0.09423952,-0.13484982,-0.857987,-9.075001,-16.575,-27.35625
1763129294429,-0.15792629,3.295515,9.1052885,-0.014202606,-0.0030543238,-0.035582874,0.09423952,-0.13484982,-0.857987,-9.075001,-16.575,-27.35625
1763129294430,-0.15493527,3.3463624,9.053245,-0.014202606,-0.0030543238,-0.035582874,0.09423952,-0.13484982,-0.857987,-9.075001,-16.575,-27.35625
1763129294438,-0.15493527,3.3463624,9.053245,-0.014202606,-0.0030543238,-0.035582874,0.09419525,-0.13503762,-0.8579159,-9.075001,-16.575,-27.35625
1763129294439,-0.15493527,3.3463624,9.053245,-0.014202606,-0.0030543238,-0.035582874,0.09419525,-0.13503762,-0.8579159,-9.356251,-18.075,-25.687502
1763129294450,-0.29491538,3.1633115,9.220144,-0.014202606,-0.0030543238,-0.035582874,0.09419525,-0.13503762,-0.8579159,-9.356251,-18.075,-25.687502
1763129294451,-0.29491538,3.1633115,9.220144,-0.017409647,-0.030237807,-0.05589413,0.09419525,-0.13503762,-0.8579159,-9.356251,-18.075,-25.687502
1763129294459,-0.29491538,3.1633115,9.220144,-0.017409647,-0.030237807,-0.05589413,0.09399347,-0.13539335,-0.8579124,-9.356251,-18.075,-25.687502
1763129294459,-0.29491538,3.1633115,9.220144,-0.017409647,-0.030237807,-0.05589413,0.09399347,-0.13539335,-0.8579124,-7.9500003,-17.268751,-26.38125
1763129294471,-0.29491538,3.1633115,9.220144,-0.017409647,0.021380268,-0.029779658,0.09399347,-0.13539335,-0.8579124,-7.9500003,-17.268751,-26.38125
1763129294472,-0.39840496,3.062813,9.233304,-0.017409647,0.021380268,-0.029779658,0.09399347,-0.13539335,-0.8579124,-7.9500003,-17.268751,-26.38125
1763129294477,-0.39840496,3.062813,9.233304,-0.017409647,0.021380268,-0.029779658,0.094126284,-0.13512704,-0.8581468,-7.9500003,-17.268751,-26.38125
1763129294478,-0.39840496,3.062813,9.233304,-0.017409647,0.021380268,-0.029779658,0.094126284,-0.13512704,-0.8581468,-9.13125,-17.71875,-27.525002
1763129294492,-0.39840496,3.062813,9.233304,-0.039858926,0.041844238,0.00320704,0.094126284,-0.13512704,-0.8581468,-9.13125,-17.71875,-27.525002
1763129294493,-0.35593235,3.0693932,9.115458,-0.039858926,0.041844238,0.00320704,0.094126284,-0.13512704,-0.8581468,-9.13125,-17.71875,-27.525002
1763129294497,-0.35593235,3.0693932,9.115458,-0.039858926,0.041844238,0.00320704,0.09430432,-0.13440062,-0.8584099,-9.13125,-17.71875,-27.525002
1763129294498,-0.35593235,3.0693932,9.115458,-0.039858926,0.041844238,0.00320704,0.09430432,-0.13440062,-0.8584099,-7.8187504,-16.575,-25.612501
1763129294513,-0.35593235,3.0693932,9.115458,-0.08261946,0.0021380268,0.0035124724,0.09430432,-0.13440062,-0.8584099,-7.8187504,-16.575,-25.612501
1763129294514,-0.30987054,3.1597223,9.144172,-0.08261946,0.0021380268,0.0035124724,0.09430432,-0.13440062,-0.8584099,-7.8187504,-16.575,-25.612501
1763129294518,-0.30987054,3.1597223,9.144172,-0.08261946,0.0021380268,0.0035124724,0.09391084,-0.13361138,-0.8587014,-7.8187504,-16.575,-25.612501
1763129294519,-0.30987054,3.1597223,9.144172,-0.08261946,0.0021380268,0.0035124724,0.09391084,-0.13361138,-0.8587014,-9.50625,-17.1375,-26.118752
1763129294534,-0.30987054,3.1597223,9.144172,-0.10690133,-0.01725693,-0.015577052,0.09391084,-0.13361138,-0.8587014,-9.50625,-17.1375,-26.118752
1763129294535,-0.3481557,3.0927234,9.397213,-0.10690133,-0.01725693,-0.015577052,0.09391084,-0.13361138,-0.8587014,-9.50625,-17.1375,-26.118752
1763129294538,-0.3481557,3.0927234,9.397213,-0.10690133,-0.01725693,-0.015577052,0.09330363,-0.13283698,-0.85895485,-9.50625,-17.1375,-26.118752
1763129294539,-0.3481557,3.0927234,9.397213,-0.10690133,-0.01725693,-0.015577052,0.09330363,-0.13283698,-0.85895485,-9.13125,-17.85,-26.118752
1763129294555,-0.3481557,3.0927234,9.397213,-0.093615025,-0.0051923506,0.00641408,0.09330363,-0.13283698,-0.85895485,-9.13125,-17.85,-26.118752
1763129294556,-0.59342,2.9012976,9.620942,-0.093615025,-0.0051923506,0.00641408,0.09330363,-0.13283698,-0.85895485,-9.13125,-17.85,-26.118752
1763129294558,-0.59342,2.9012976,9.620942,-0.093615025,-0.0051923506,0.00641408,0.092727005,-0.13196649,-0.8593038,-9.13125,-17.85,-26.118752
1763129294559,-0.59342,2.9012976,9.620942,-0.093615025,-0.0051923506,0.00641408,0.092727005,-0.13196649,-0.8593038,-8.94375,-16.837502,-24.375002
1763129294576,-0.59342,2.9012976,9.620942,0.20219624,0.39492407,0.010079269,0.092727005,-0.13196649,-0.8593038,-8.94375,-16.837502,-24.375002
1763129294577,-0.6047859,2.6925237,10.15155,0.20219624,0.39492407,0.010079269,0.092727005,-0.13196649,-0.8593038,-8.94375,-16.837502,-24.375002
1763129294578,-0.6047859,2.6925237,10.15155,0.20219624,0.39492407,0.010079269,0.09709901,-0.13127573,-0.859474,-8.94375,-16.837502,-24.375002
1763129294579,-0.6047859,2.6925237,10.15155,0.20219624,0.39492407,0.010079269,0.09709901,-0.13127573,-0.859474,-9.09375,-17.212502,-27.187502
1763129294598,-0.6047859,2.6925237,10.15155,0.20219624,0.39492407,0.010079269,0.1040112,-0.13354093,-0.86049426,-9.09375,-17.212502,-27.187502
1763129294599,-0.6047859,2.6925237,10.15155,0.64369875,0.5398517,0.003970621,0.1040112,-0.13354093,-0.86049426,-9.09375,-17.212502,-27.187502
1763129294600,-0.6047859,2.6925237,10.15155,0.64369875,0.5398517,0.003970621,0.1040112,-0.13354093,-0.86049426,-10.762501,-19.0125,-24.16875
1763129294602,-0.8566305,2.8205397,9.7609215,0.64369875,0.5398517,0.003970621,0.1040112,-0.13354093,-0.86049426,-10.762501,-19.0125,-24.16875
1763129294619,-1.1330016,3.071188,8.758927,0.64369875,0.5398517,0.003970621,0.1040112,-0.13354093,-0.86049426,-10.762501,-19.0125,-24.16875
1763129294620,-1.1330016,3.071188,8.758927,0.64354604,0.3527744,0.12400555,0.1040112,-0.13354093,-0.86049426,-10.762501,-19.0125,-24.16875
1763129294620,-1.1330016,3.071188,8.758927,0.64354604,0.3527744,0.12400555,0.10963639,-0.13681825,-0.8603679,-10.762501,-19.0125,-24.16875
1763129294621,-1.1330016,3.071188,8.758927,0.64354604,0.3527744,0.12400555,0.10963639,-0.13681825,-0.8603679,-9.65625,-19.275002,-26.212502
1763129294637,-1.1330016,3.071188,8.758927,0.64354604,0.3527744,0.12400555,0.10963639,-0.13681825,-0.8603679,-9.225,-18.84375,-26.19375
1763129294638,-1.5200406,3.0616167,8.243873,0.64354604,0.3527744,0.12400555,0.10963639,-0.13681825,-0.8603679,-9.225,-18.84375,-26.19375
1763129294640,-1.5200406,3.0616167,8.243873,0.17027856,0.0015271619,0.26465717,0.10963639,-0.13681825,-0.8603679,-9.225,-18.84375,-26.19375
1763129294641,-1.5200406,3.0616167,8.243873,0.17027856,0.0015271619,0.26465717,0.11105346,-0.13782607,-0.8583701,-9.225,-18.84375,-26.19375
1763129294657,-1.5200406,3.0616167,8.243873,0.17027856,0.0015271619,0.26465717,0.11105346,-0.13782607,-0.8583701,-8.418751,-16.06875,-25.312502
1763129294660,-1.5200406,3.0616167,8.243873,-0.4411971,-0.33689192,0.49922925,0.11105346,-0.13782607,-0.8583701,-8.418751,-16.06875,-25.312502
1763129294661,-1.5200406,3.0616167,8.243873,-0.4411971,-0.33689192,0.49922925,0.107302465,-0.13494866,-0.8549884,-8.418751,-16.06875,-25.312502
1763129294662,-1.1294123,2.9682965,8.390432,-0.4411971,-0.33689192,0.49922925,0.107302465,-0.13494866,-0.8549884,-8.418751,-16.06875,-25.312502
1763129294690,-1.1294123,2.9682965,8.390432,-0.4411971,-0.33689192,0.49922925,0.107302465,-0.13494866,-0.8549884,-10.368751,-19.743752,-25.3875
1763129294691,-1.1294123,2.9682965,8.390432,-0.72830355,-0.3536907,0.572533,0.107302465,-0.13494866,-0.8549884,-10.368751,-19.743752,-25.3875
1763129294692,-1.1294123,2.9682965,8.390432,-0.72830355,-0.3536907,0.572533,0.1011624,-0.13007054,-0.8520463,-10.368751,-19.743752,-25.3875
1763129294693,-0.39541394,2.9509485,8.866604,-0.72830355,-0.3536907,0.572533,0.1011624,-0.13007054,-0.8520463,-10.368751,-19.743752,-25.3875
