timestamp,accX,accY,accZ,gyroX,gyroY,gyroZ,rotX,rotY,rotZ,magX,magY,magZ
1763129313318,-0.80997044,6.317052,2.8725836,0.066889696,0.16432263,0.7203623,0.3169597,-0.16592929,-0.71986187,4.6687503,-22.81875,-23.00625
1763129313319,-0.80997044,6.317052,2.8725836,-0.42226028,-0.4470003,0.23411393,0.3169597,-0.16592929,-0.71986187,4.6687503,-22.81875,-23.00625
1763129313320,-0.010767702,8.162517,4.9579287,-0.42226028,-0.4470003,0.23411393,0.3169597,-0.16592929,-0.71986187,4.6687503,-22.81875,-23.00625
1763129313321,-0.010767702,8.162517,4.9579287,-0.42226028,-0.4470003,0.23411393,0.31136212,-0.16614504,-0.7187417,4.6687503,-22.81875,-23.00625
1763129313321,-0.010767702,8.162517,4.9579287,-0.42226028,-0.4470003,0.23411393,0.31136212,-0.16614504,-0.7187417,12.6,-19.40625,-27.31875
1763129313322,-0.010767702,8.162517,4.9579287,-0.42226028,-0.4470003,0.23411393,0.30386487,-0.16341792,-0.7207869,12.6,-19.40625,-27.31875
1763129313323,-0.010767702,8.162517,4.9579287,-0.72555465,-0.51450086,-0.17974696,0.30386487,-0.16341792,-0.7207869,12.6,-19.40625,-27.31875
1763129313324,-0.3044867,8.2456665,6.613762,-0.72555465,-0.51450086,-0.17974696,0.30386487,-0.16341792,-0.7207869,12.6,-19.40625,-27.31875
1763129313339,-0.3044867,8.2456665,6.613762,-0.72555465,-0.51450086,-0.17974696,0.30386487,-0.16341792,-0.7207869,8.606251,-21.46875,-27.337502
1763129313342,-0.3044867,8.2456665,6.613762,-0.72555465,-0.51450086,-0.17974696,0.29640242,-0.15949392,-0.7253489,8.606251,-21.46875,-27.337502
1763129313343,-0.3044867,8.2456665,6.613762,-0.76129025,-0.51450086,-0.5027417,0.29640242,-0.15949392,-0.7253489,8.606251,-21.46875,-27.337502
1763129313344,0.0059820567,7.004988,7.207182,-0.76129025,-0.51450086,-0.5027417,0.29640242,-0.15949392,-0.7253489,8.606251,-21.46875,-27.337502
1763129313357,0.0059820567,7.004988,7.207182,-0.76129025,-0.51450086,-0.5027417,0.29640242,-0.15949392,-0.7253489,7.4437504,-22.35,-25.031252
1763129313363,0.0059820567,7.004988,7.207182,-0.6734784,-0.5836813,-0.7351758,0.29640242,-0.15949392,-0.7253489,7.4437504,-22.35,-25.031252
1763129313364,0.0059820567,7.004988,7.207182,-0.6734784,-0.5836813,-0.7351758,0.28889397,-0.15610965,-0.73210514,7.4437504,-22.35,-25.031252
1763129313365,-0.46899325,6.3134627,7.094121,-0.6734784,-0.5836813,-0.7351758,0.28889397,-0.15610965,-0.73210514,7.4437504,-22.35,-25.031252
1763129313377,-0.46899325,6.3134627,7.094121,-0.6734784,-0.5836813,-0.7351758,0.28889397,-0.15610965,-0.73210514,8.0625,-20.475,-27.31875
1763129313385,-0.46899325,6.3134627,7.094121,-0.7179188,-0.62781626,-0.82405657,0.28889397,-0.15610965,-0.73210514,8.0625,-20.475,-27.31875
1763129313386,-0.46899325,6.3134627,7.094121,-0.7179188,-0.62781626,-0.82405657,0.2808783,-0.15229325,-0.7397083,8.0625,-20.475,-27.31875
1763129313387,-1.2287145,6.1848483,7.416554,-0.7179188,-0.62781626,-0.82405657,0.2808783,-0.15229325,-0.7397083,8.0625,-20.475,-27.31875
1763129313398,-1.2287145,6.1848483,7.416554,-0.7179188,-0.62781626,-0.82405657,0.2808783,-0.15229325,-0.7397083,9.993751,-18.900002,-28.66875
1763129313405,-1.747957,5.9706907,8.314461,-0.7179188,-0.62781626,-0.82405657,0.2808783,-0.15229325,-0.7397083,9.993751,-18.900002,-28.66875
1763129313406,-1.747957,5.9706907,8.314461,-0.6656899,-0.6966913,-0.9025527,0.2808783,-0.15229325,-0.7397083,9.993751,-18.900002,-28.66875
1763129313419,-1.747957,5.9706907,8.314461,-0.6656899,-0.6966913,-0.9025527,0.2808783,-0.15229325,-0.7397083,8.418751,-18.6375,-29.062502
1763129313420,-1.747957,5.9706907,8.314461,-0.6656899,-0.6966913,-0.9025527,0.2728261,-0.14893676,-0.74783945,8.418751,-18.6375,-29.062502
1763129313426,-1.747957,5.9706907,8.314461,-0.5523745,-0.6545416,-0.9604322,0.2728261,-0.14893676,-0.74783945,8.418751,-18.6375,-29.062502
1763129313427,-1.9716859,5.406583,8.779864,-0.5523745,-0.6545416,-0.9604322,0.2728261,-0.14893676,-0.74783945,8.418751,-18.6375,-29.062502
1763129313437,-1.9716859,5.406583,8.779864,-0.5523745,-0.6545416,-0.9604322,0.26576424,-0.14598659,-0.75618714,8.418751,-18.6375,-29.062502
1763129313438,-1.9716859,5.406583,8.779864,-0.5523745,-0.6545416,-0.9604322,0.26576424,-0.14598659,-0.75618714,9.075001,-18.65625,-30.375002
1763129313446,-1.9716859,5.406583,8.779864,-0.4967858,-0.5557342,-0.9457714,0.26576424,-0.14598659,-0.75618714,9.075001,-18.65625,-30.375002
1763129313447,-2.3030918,4.981857,8.793025,-0.4967858,-0.5557342,-0.9457714,0.26576424,-0.14598659,-0.75618714,9.075001,-18.65625,-30.375002
1763129313458,-2.3030918,4.981857,8.793025,-0.4967858,-0.5557342,-0.9457714,0.2596325,-0.14288339,-0.7642808,9.075001,-18.65625,-30.375002
1763129313459,-2.3030918,4.981857,8.793025,-0.4967858,-0.5557342,-0.9457714,0.2596325,-0.14288339,-0.7642808,6.24375,-18.65625,-29.400002
1763129313468,-2.3030918,4.981857,8.793025,-0.39568767,-0.55206907,-0.88789195,0.2596325,-0.14288339,-0.7642808,6.24375,-18.65625,-29.400002
1763129313470,-2.6943183,4.698307,8.79482,-0.39568767,-0.55206907,-0.88789195,0.2596325,-0.14288339,-0.7642808,6.24375,-18.65625,-29.400002
1763129313479,-2.6943183,4.698307,8.79482,-0.39568767,-0.55206907,-0.88789195,0.25402716,-0.14063452,-0.77184695,6.24375,-18.65625,-29.400002
1763129313479,-2.6943183,4.698307,8.79482,-0.39568767,-0.55206907,-0.88789195,0.25402716,-0.14063452,-0.77184695,6.7312503,-19.181252,-29.56875
1763129313489,-2.6943183,4.698307,8.79482,-0.3006982,-0.5731439,-0.78908455,0.25402716,-0.14063452,-0.77184695,6.7312503,-19.181252,-29.56875
1763129313490,-3.0311081,4.3800616,8.562716,-0.3006982,-0.5731439,-0.78908455,0.25402716,-0.14063452,-0.77184695,6.7312503,-19.181252,-29.56875
1763129313498,-3.0311081,4.3800616,8.562716,-0.3006982,-0.5731439,-0.78908455,0.2486986,-0.139433,-0.77866524,6.7312503,-19.181252,-29.56875
1763129313499,-3.0311081,4.3800616,8.562716,-0.3006982,-0.5731439,-0.78908455,0.2486986,-0.139433,-0.77866524,7.2937503,-15.675,-28.518751
1763129313510,-3.0311081,4.3800616,8.562716,-0.24297146,-0.5858193,-0.64156073,0.2486986,-0.139433,-0.77866524,7.2937503,-15.675,-28.518751
1763129313511,-3.0598218,4.1431723,8.567501,-0.24297146,-0.5858193,-0.64156073,0.2486986,-0.139433,-0.77866524,7.2937503,-15.675,-28.518751
1763129313517,-3.0598218,4.1431723,8.567501,-0.24297146,-0.5858193,-0.64156073,0.24344859,-0.13904744,-0.7844593,7.2937503,-15.675,-28.518751
1763129313518,-3.0598218,4.1431723,8.567501,-0.24297146,-0.5858193,-0.64156073,0.24344859,-0.13904744,-0.7844593,2.2687502,-21.0,-27.525002
1763129313531,-3.0598218,4.1431723,8.567501,-0.24083345,-0.47265664,-0.51251554,0.24344859,-0.13904744,-0.7844593,2.2687502,-21.0,-27.525002
1763129313532,-2.757728,4.080959,8.689535,-0.24083345,-0.47265664,-0.51251554,0.24344859,-0.13904744,-0.7844593,2.2687502,-21.0,-27.525002
1763129313537,-2.757728,4.080959,8.689535,-0.24083345,-0.47265664,-0.51251554,0.24344859,-0.13904744,-0.7844593,3.1312501,-19.85625,-29.531252
1763129313538,-2.757728,4.080959,8.689535,-0.24083345,-0.47265664,-0.51251554,0.23892476,-0.13832143,-0.78920007,3.1312501,-19.85625,-29.531252
1763129313553,-2.757728,4.080959,8.689535,-0.20066908,-0.33078328,-0.4045452,0.23892476,-0.13832143,-0.78920007,3.1312501,-19.85625,-29.531252
1763129313554,-2.6434708,4.1838503,8.676374,-0.20066908,-0.33078328,-0.4045452,0.23892476,-0.13832143,-0.78920007,3.1312501,-19.85625,-29.531252
1763129313557,-2.6434708,4.1838503,8.676374,-0.20066908,-0.33078328,-0.4045452,0.23557074,-0.13741489,-0.79287845,3.1312501,-19.85625,-29.531252
1763129313558,-2.6434708,4.1838503,8.676374,-0.20066908,-0.33078328,-0.4045452,0.23557074,-0.13741489,-0.79287845,2.68125,-19.63125,-27.16875
1763129313573,-2.6434708,4.1838503,8.676374,-0.107054055,-0.27763805,-0.30711228,0.23557074,-0.13741489,-0.79287845,2.68125,-19.63125,-27.16875
1763129313575,-2.7074788,4.211368,8.459825,-0.107054055,-0.27763805,-0.30711228,0.23557074,-0.13741489,-0.79287845,2.68125,-19.63125,-27.16875
1763129313579,-2.7074788,4.211368,8.459825,-0.107054055,-0.27763805,-0.30711228,0.23307042,-0.13722125,-0.79560345,2.68125,-19.63125,-27.16875
1763129313580,-2.7074788,4.211368,8.459825,-0.107054055,-0.27763805,-0.30711228,0.23307042,-0.13722125,-0.79560345,5.30625,-18.393751,-29.1375
1763129313595,-2.5782664,4.3471603,8.313862,-0.107054055,-0.27763805,-0.30711228,0.23307042,-0.13722125,-0.79560345,5.30625,-18.393751,-29.1375
1763129313596,-2.5782664,4.3471603,8.313862,-0.056352276,-0.26664248,-0.21930045,0.23307042,-0.13722125,-0.79560345,5.30625,-18.393751,-29.1375
1763129313599,-2.5782664,4.3471603,8.313862,-0.056352276,-0.26664248,-0.21930045,0.230892,-0.13757372,-0.7976153,5.30625,-18.393751,-29.1375
1763129313600,-2.5782664,4.3471603,8.313862,-0.056352276,-0.26664248,-0.21930045,0.230892,-0.13757372,-0.7976153,3.45,-18.65625,-29.306252
1763129313615,-2.5782664,4.3471603,8.313862,-0.101250835,-0.18845178,-0.18784092,0.230892,-0.13757372,-0.7976153,3.45,-18.65625,-29.306252
1763129313616,-2.353341,4.395017,8.311469,-0.101250835,-0.18845178,-0.18784092,0.230892,-0.13757372,-0.7976153,3.45,-18.65625,-29.306252
1763129313618,-2.353341,4.395017,8.311469,-0.101250835,-0.18845178,-0.18784092,0.22905077,-0.13728803,-0.79941124,3.45,-18.65625,-29.306252
1763129313619,-2.353341,4.395017,8.311469,-0.101250835,-0.18845178,-0.18784092,0.22905077,-0.13728803,-0.79941124,4.18125,-17.04375,-28.312502
1763129313638,-2.353341,4.395017,8.311469,-0.15134175,-0.116980605,-0.16355905,0.22905077,-0.13728803,-0.79941124,4.18125,-17.04375,-28.312502
1763129313639,-2.2863421,4.4781675,8.312666,-0.15134175,-0.116980605,-0.16355905,0.22905077,-0.13728803,-0.79941124,4.18125,-17.04375,-28.312502
1763129313640,-2.2863421,4.4781675,8.312666,-0.15134175,-0.116980605,-0.16355905,0.22750539,-0.13620663,-0.8007746,4.18125,-17.04375,-28.312502
1763129313641,-2.2863421,4.4781675,8.312666,-0.15134175,-0.116980605,-0.16355905,0.22750539,-0.13620663,-0.8007746,4.275,-18.300001,-28.706251
1763129313658,-2.2863421,4.4781675,8.312666,-0.15134175,-0.116980605,-0.16355905,0.22750539,-0.13620663,-0.8007746,4.1625004,-16.893751,-28.968752
1763129313660,-2.2863421,4.4781675,8.312666,-0.15134175,-0.116980605,-0.16355905,0.22590627,-0.13509315,-0.80214083,4.1625004,-16.893751,-28.968752
1763129313661,-2.2863421,4.4781675,8.312666,-0.16111559,-0.114689864,-0.15806127,0.22590627,-0.13509315,-0.80214083,4.1625004,-16.893751,-28.968752
1763129313662,-2.178665,4.627719,8.325827,-0.16111559,-0.114689864,-0.15806127,0.22590627,-0.13509315,-0.80214083,4.1625004,-16.893751,-28.968752
1763129313678,-2.178665,4.627719,8.325827,-0.16111559,-0.114689864,-0.15806127,0.22388932,-0.13456538,-0.8038962,4.1625004,-16.893751,-28.968752
1763129313679,-2.178665,4.627719,8.325827,-0.13637556,-0.18585561,-0.19715661,0.22388932,-0.13456538,-0.8038962,4.1625004,-16.893751,-28.968752
1763129313681,-2.178665,4.627719,8.325827,-0.13637556,-0.18585561,-0.19715661,0.22388932,-0.13456538,-0.8038962,3.6562502,-18.45,-28.406252
1763129313682,-1.948954,4.840082,8.212168,-0.13637556,-0.18585561,-0.19715661,0.22388932,-0.13456538,-0.8038962,3.6562502,-18.45,-28.406252
1763129313698,-1.948954,4.840082,8.212168,-0.13637556,-0.18585561,-0.19715661,0.22388932,-0.13456538,-0.8038962,1.9687501,-19.143751,-27.35625
1763129313699,-1.948954,4.840082,8.212168,-0.13637556,-0.18585561,-0.19715661,0.22120024,-0.13390315,-0.8062497,1.9687501,-19.143751,-27.35625
1763129313700,-1.948954,4.840082,8.212168,-0.17363831,-0.26618433,-0.308334,0.22120024,-0.13390315,-0.8062497,1.9687501,-19.143751,-27.35625
1763129313702,-1.8885353,4.930411,7.969894,-0.17363831,-0.26618433,-0.308334,0.22120024,-0.13390315,-0.8062497,1.9687501,-19.143751,-27.35625
1763129313717,-1.8885353,4.930411,7.969894,-0.17363831,-0.26618433,-0.308334,0.22120024,-0.13390315,-0.8062497,3.3187501,-17.23125,-28.518751
1763129313720,-1.8885353,4.930411,7.969894,-0.2583958,-0.32223117,-0.39477137,0.22120024,-0.13390315,-0.8062497,3.3187501,-17.23125,-28.518751
1763129313721,-1.9776679,4.74078,8.086544,-0.2583958,-0.32223117,-0.39477137,0.22120024,-0.13390315,-0.8062497,3.3187501,-17.23125,-28.518751
1763129313724,-1.9776679,4.74078,8.086544,-0.2583958,-0.32223117,-0.39477137,0.21774614,-0.13263807,-0.8091825,3.3187501,-17.23125,-28.518751
1763129313738,-1.9776679,4.74078,8.086544,-0.2583958,-0.32223117,-0.39477137,0.21774614,-0.13263807,-0.8091825,3.4875002,-17.5125,-27.7875
1763129313741,-1.9776679,4.74078,8.086544,-0.2583958,-0.32223117,-0.39477137,0.21357237,-0.13144048,-0.8126898,3.4875002,-17.5125,-27.7875
1763129313743,-1.774278,4.74078,8.148159,-0.2583958,-0.32223117,-0.39477137,0.21357237,-0.13144048,-0.8126898,3.4875002,-17.5125,-27.7875
1763129313744,-1.774278,4.74078,8.148159,-0.28130323,-0.39935285,-0.4555524,0.21357237,-0.13144048,-0.8126898,3.4875002,-17.5125,-27.7875
1763129313758,-1.774278,4.74078,8.148159,-0.28130323,-0.39935285,-0.4555524,0.21357237,-0.13144048,-0.8126898,2.79375,-16.3875,-27.975
1763129313762,-1.6959131,4.6612186,7.8903327,-0.28130323,-0.39935285,-0.4555524,0.21357237,-0.13144048,-0.8126898,2.79375,-16.3875,-27.975
1763129313763,-1.6959131,4.6612186,7.8903327,-0.31627524,-0.53007793,-0.5430588,0.21357237,-0.13144048,-0.8126898,2.79375,-16.3875,-27.975
1763129313765,-1.6959131,4.6612186,7.8903327,-0.31627524,-0.53007793,-0.5430588,0.20817211,-0.13050465,-0.8169741,2.79375,-16.3875,-27.975
1763129313778,-1.6959131,4.6612186,7.8903327,-0.31627524,-0.53007793,-0.5430588,0.20817211,-0.13050465,-0.8169741,1.40625,-17.212502,-29.23125
1763129313783,-1.6959131,4.6612186,7.8903327,-0.31627524,-0.53007793,-0.5430588,0.20056157,-0.13017732,-0.8221615,1.40625,-17.212502,-29.23125
1763129313785,-1.4943178,4.74078,7.45783,-0.31627524,-0.53007793,-0.5430588,0.20056157,-0.13017732,-0.8221615,1.40625,-17.212502,-29.23125
1763129313786,-1.4943178,4.74078,7.45783,-0.3741547,-0.7675516,-0.62659454,0.20056157,-0.13017732,-0.8221615,1.40625,-17.212502,-29.23125
1763129313797,-1.4943178,4.74078,7.45783,-0.3741547,-0.7675516,-0.62659454,0.20056157,-0.13017732,-0.8221615,0.43125,-17.4375,-29.925001
1763129313804,-1.4943178,4.74078,7.45783,-0.44623673,-1.1682789,-0.7686206,0.20056157,-0.13017732,-0.8221615,0.43125,-17.4375,-29.925001
1763129313805,-1.4943178,4.74078,7.45783,-0.44623673,-1.1682789,-0.7686206,0.18935414,-0.13110977,-0.8287446,0.43125,-17.4375,-29.925001
1763129313806,-1.3896317,4.653442,7.5409803,-0.44623673,-1.1682789,-0.7686206,0.18935414,-0.13110977,-0.8287446,0.43125,-17.4375,-29.925001
1763129313818,-1.3896317,4.653442,7.5409803,-0.44623673,-1.1682789,-0.7686206,0.18935414,-0.13110977,-0.8287446,-1.0125,-17.94375,-29.60625
1763129313825,-1.3896317,4.653442,7.5409803,-0.57680905,-1.402851,-0.8947642,0.18935414,-0.13110977,-0.8287446,-1.0125,-17.94375,-29.60625
1763129313827,-1.3896317,4.653442,7.5409803,-0.57680905,-1.402851,-0.8947642,0.17555243,-0.13189267,-0.8364099,-1.0125,-17.94375,-29.60625
1763129313829,-1.561915,4.1718864,8.146963,-0.57680905,-1.402851,-0.8947642,0.17555243,-0.13189267,-0.8364099,-1.0125,-17.94375,-29.60625
1763129313838,-1.561915,4.1718864,8.146963,-0.57680905,-1.402851,-0.8947642,0.17555243,-0.13189267,-0.8364099,-1.3312501,-17.681252,-28.706251
1763129313845,-1.561915,4.1718864,8.146963,-0.76907873,-1.5323544,-0.9506583,0.17555243,-0.13189267,-0.8364099,-1.3312501,-17.681252,-28.706251
1763129313846,-1.410569,3.5635111,8.23131,-0.76907873,-1.5323544,-0.9506583,0.17555243,-0.13189267,-0.8364099,-1.3312501,-17.681252,-28.706251
1763129313858,-1.410569,3.5635111,8.23131,-0.76907873,-1.5323544,-0.9506583,0.15957595,-0.13144429,-0.8447498,-1.3312501,-17.681252,-28.706251
1763129313859,-1.410569,3.5635111,8.23131,-0.76907873,-1.5323544,-0.9506583,0.15957595,-0.13144429,-0.8447498,-4.425,-18.393751,-27.91875
1763129313868,-1.410569,3.5635111,8.23131,-1.0048726,-1.6108505,-0.8839213,0.15957595,-0.13144429,-0.8447498,-4.425,-18.393751,-27.91875
1763129313870,-1.2412767,2.961118,8.453244,-1.0048726,-1.6108505,-0.8839213,0.15957595,-0.13144429,-0.8447498,-4.425,-18.393751,-27.91875
1763129313878,-1.2412767,2.961118,8.453244,-1.0048726,-1.6108505,-0.8839213,0.14145672,-0.12932944,-0.85298073,-4.425,-18.393751,-27.91875
1763129313879,-1.2412767,2.961118,8.453244,-1.0048726,-1.6108505,-0.8839213,0.14145672,-0.12932944,-0.85298073,-1.9125,-14.925,-27.956251
1763129313888,-1.2412767,2.961118,8.453244,-1.1461351,-1.6203188,-0.75838864,0.14145672,-0.12932944,-0.85298073,-1.9125,-14.925,-27.956251
1763129313889,-0.9200403,2.858825,9.257233,-1.1461351,-1.6203188,-0.75838864,0.14145672,-0.12932944,-0.85298073,-1.9125,-14.925,-27.956251
1763129313898,-0.9200403,2.858825,9.257233,-1.1461351,-1.6203188,-0.75838864,0.12221931,-0.12607668,-0.86052155,-1.9125,-14.925,-27.956251
1763129313899,-0.9200403,2.858825,9.257233,-1.1461351,-1.6203188,-0.75838864,0.12221931,-0.12607668,-0.86052155,-4.5375004,-15.50625,-25.237501
1763129313913,-0.9200403,2.858825,9.257233,-1.0497711,-1.4935644,-0.7023418,0.12221931,-0.12607668,-0.86052155,-4.5375004,-15.50625,-25.237501
1763129313914,-0.6305088,2.922833,9.97508,-1.0497711,-1.4935644,-0.7023418,0.12221931,-0.12607668,-0.86052155,-4.5375004,-15.50625,-25.237501
1763129313918,-0.6305088,2.922833,9.97508,-1.0497711,-1.4935644,-0.7023418,0.12221931,-0.12607668,-0.86052155,-5.2125,-15.187501,-27.337502
1763129313919,-0.6305088,2.922833,9.97508,-1.0497711,-1.4935644,-0.7023418,0.10440781,-0.12308881,-0.8671791,-5.2125,-15.187501,-27.337502
1763129313929,-0.6305088,2.922833,9.97508,-0.7487675,-1.3252711,-0.72188944,0.10440781,-0.12308881,-0.8671791,-5.2125,-15.187501,-27.337502
1763129313930,-0.6029913,2.6907291,10.388439,-0.7487675,-1.3252711,-0.72188944,0.10440781,-0.12308881,-0.8671791,-5.2125,-15.187501,-27.337502
1763129313939,-0.6029913,2.6907291,10.388439,-0.7487675,-1.3252711,-0.72188944,0.08957422,-0.12196567,-0.8730543,-5.2125,-15.187501,-27.337502
1763129313939,-0.6029913,2.6907291,10.388439,-0.7487675,-1.3252711,-0.72188944,0.08957422,-0.12196567,-0.8730543,-7.2562504,-16.125,-24.825
1763129313951,-0.6029913,2.6907291,10.388439,-0.4318814,-1.0784818,-0.6701187,0.08957422,-0.12196567,-0.8730543,-7.2562504,-16.125,-24.825
1763129313953,-0.5724828,2.437688,10.517652,-0.4318814,-1.0784818,-0.6701187,0.08957422,-0.12196567,-0.8730543,-7.2562504,-16.125,-24.825
1763129313957,-0.5724828,2.437688,10.517652,-0.4318814,-1.0784818,-0.6701187,0.07844747,-0.122498274,-0.87787145,-7.2562504,-16.125,-24.825
1763129313958,-0.5724828,2.437688,10.517652,-0.4318814,-1.0784818,-0.6701187,0.07844747,-0.122498274,-0.87787145,-7.5937505,-15.562501,-25.968752
1763129313972,-0.5724828,2.437688,10.517652,-0.21151192,-0.75976306,-0.59391326,0.07844747,-0.122498274,-0.87787145,-7.5937505,-15.562501,-25.968752
1763129313973,-0.31226337,2.4945176,10.296914,-0.21151192,-0.75976306,-0.59391326,0.07844747,-0.122498274,-0.87787145,-7.5937505,-15.562501,-25.968752
1763129313978,-0.31226337,2.4945176,10.296914,-0.21151192,-0.75976306,-0.59391326,0.0711848,-0.12352298,-0.8817002,-7.5937505,-15.562501,-25.968752
1763129313979,-0.31226337,2.4945176,10.296914,-0.21151192,-0.75976306,-0.59391326,0.0711848,-0.12352298,-0.8817002,-8.475,-15.76875,-24.656252
1763129313993,-0.31226337,2.4945176,10.296914,-0.12965605,-0.59605134,-0.5374083,0.0711848,-0.12352298,-0.8817002,-8.475,-15.76875,-24.656252
1763129313994,-0.23808585,2.2731814,9.890134,-0.12965605,-0.59605134,-0.5374083,0.0711848,-0.12352298,-0.8817002,-8.475,-15.76875,-24.656252
1763129313998,-0.23808585,2.2731814,9.890134,-0.12965605,-0.59605134,-0.5374083,0.06572742,-0.12460935,-0.88493145,-8.475,-15.76875,-24.656252
1763129313999,-0.23808585,2.2731814,9.890134,-0.12965605,-0.59605134,-0.5374083,0.06572742,-0.12460935,-0.88493145,-10.650001,-17.8875,-26.268751
1763129314014,-0.23808585,2.2731814,9.890134,-0.1424842,-0.55206907,-0.4555524,0.06572742,-0.12460935,-0.88493145,-10.650001,-17.8875,-26.268751
1763129314015,-0.20458634,2.2301106,9.677772,-0.1424842,-0.55206907,-0.4555524,0.06572742,-0.12460935,-0.88493145,-10.650001,-17.8875,-26.268751
1763129314020,-0.20458634,2.2301106,9.677772,-0.1424842,-0.55206907,-0.4555524,0.060498226,-0.12540036,-0.88772464,-10.650001,-17.8875,-26.268751
1763129314021,-0.20458634,2.2301106,9.677772,-0.1424842,-0.55206907,-0.4555524,0.060498226,-0.12540036,-0.88772464,-9.262501,-16.275002,-25.518751
1763129314038,-0.20458634,2.2301106,9.677772,-0.14401138,-0.50304717,-0.3572032,0.060498226,-0.12540036,-0.88772464,-9.262501,-16.275002,-25.518751
1763129314039,-0.2632105,2.3162522,9.768699,-0.14401138,-0.50304717,-0.3572032,0.060498226,-0.12540036,-0.88772464,-9.262501,-16.275002,-25.518751
1763129314040,-0.2632105,2.3162522,9.768699,-0.14401138,-0.50304717,-0.3572032,0.055610627,-0.1260076,-0.88995755,-9.262501,-16.275002,-25.518751
1763129314042,-0.2632105,2.3162522,9.768699,-0.14401138,-0.50304717,-0.3572032,0.055610627,-0.1260076,-0.88995755,-11.15625,-16.556252,-25.087502
1763129314056,-0.2632105,2.3162522,9.768699,-0.06627883,-0.44409868,-0.30955574,0.055610627,-0.1260076,-0.88995755,-11.15625,-16.556252,-25.087502
1763129314057,-0.31106696,2.5268207,9.940982,-0.06627883,-0.44409868,-0.30955574,0.055610627,-0.1260076,-0.88995755,-11.15625,-16.556252,-25.087502
1763129314059,-0.31106696,2.5268207,9.940982,-0.06627883,-0.44409868,-0.30955574,0.051616017,-0.12708986,-0.8917439,-11.15625,-16.556252,-25.087502
1763129314061,-0.31106696,2.5268207,9.940982,-0.06627883,-0.44409868,-0.30955574,0.051616017,-0.12708986,-0.8917439,-10.3125,-16.2,-24.7875
1763129314078,-0.31106696,2.5268207,9.940982,0.116980605,-0.38835728,-0.3480402,0.051616017,-0.12708986,-0.8917439,-10.3125,-16.2,-24.7875
1763129314079,-0.31106696,2.5268207,9.940982,0.116980605,-0.38835728,-0.3480402,0.04908152,-0.12962124,-0.8933315,-10.3125,-16.2,-24.7875
1763129314082,-0.31106696,2.5268207,9.940982,0.116980605,-0.38835728,-0.3480402,0.04908152,-0.12962124,-0.8933315,-12.243751,-17.75625,-24.187502
1763129314083,-0.10707881,2.7098715,9.780065,0.116980605,-0.38835728,-0.3480402,0.04908152,-0.12962124,-0.8933315,-12.243751,-17.75625,-24.187502
1763129314099,0.30329028,2.8845477,9.768699,0.116980605,-0.38835728,-0.3480402,0.04908152,-0.12962124,-0.8933315,-12.243751,-17.75625,-24.187502
1763129314100,0.30329028,2.8845477,9.768699,0.116980605,-0.38835728,-0.3480402,0.04748169,-0.13454792,-0.8948702,-12.243751,-17.75625,-24.187502
1763129314101,0.30329028,2.8845477,9.768699,0.35979936,-0.41325003,-0.41920596,0.04748169,-0.13454792,-0.8948702,-12.243751,-17.75625,-24.187502
1763129314103,0.30329028,2.8845477,9.768699,0.35979936,-0.41325003,-0.41920596,0.04748169,-0.13454792,-0.8948702,-12.01875,-16.893751,-23.2875
1763129314117,0.30329028,2.8845477,9.768699,0.35979936,-0.41325003,-0.41920596,0.04748169,-0.13454792,-0.8948702,-12.431251,-16.518751,-24.73125
1763129314118,0.30329028,2.8845477,9.768699,0.35979936,-0.41325003,-0.41920596,0.04720445,-0.14069241,-0.89630306,-12.431251,-16.518751,-24.73125
1763129314119,0.30329028,2.8845477,9.768699,0.5193878,-0.34177884,-0.45142907,0.04720445,-0.14069241,-0.89630306,-12.431251,-16.518751,-24.73125
1763129314120,0.33379877,2.824727,9.558728,0.5193878,-0.34177884,-0.45142907,0.04720445,-0.14069241,-0.89630306,-12.431251,-16.518751,-24.73125
1763129314138,0.33379877,2.824727,9.558728,0.5193878,-0.34177884,-0.45142907,0.04720445,-0.14069241,-0.89630306,-12.843751,-17.1,-25.29375
1763129314140,0.33379877,2.824727,9.558728,0.5193878,-0.34177884,-0.45142907,0.047318682,-0.14706625,-0.89741707,-12.843751,-17.1,-25.29375
1763129314141,0.33379877,2.824727,9.558728,0.560163,-0.3081813,-0.40088,0.047318682,-0.14706625,-0.89741707,-12.843751,-17.1,-25.29375
1763129314142,0.14177474,2.5938199,9.482158,0.560163,-0.3081813,-0.40088,0.047318682,-0.14706625,-0.89741707,-12.843751,-17.1,-25.29375
1763129314157,0.14177474,2.5938199,9.482158,0.560163,-0.3081813,-0.40088,0.047318682,-0.14706625,-0.89741707,-13.837501,-18.91875,-23.587502
1763129314160,0.14177474,2.5938199,9.482158,0.560163,-0.3081813,-0.40088,0.04845351,-0.15271899,-0.8979608,-13.837501,-18.91875,-23.587502
1763129314161,0.14177474,2.5938199,9.482158,0.54901475,-0.17455462,-0.28023422,0.04845351,-0.15271899,-0.8979608,-13.837501,-18.91875,-23.587502
1763129314162,0.24586253,2.673381,9.42174,0.54901475,-0.17455462,-0.28023422,0.04845351,-0.15271899,-0.8979608,-13.837501,-18.91875,-23.587502
1763129314180,0.24586253,2.673381,9.42174,0.54901475,-0.17455462,-0.28023422,0.04845351,-0.15271899,-0.8979608,-11.925,-18.825,-25.331251
1763129314183,0.24586253,2.673381,9.42174,0.47861254,-0.058795735,-0.1802051,0.04845351,-0.15271899,-0.8979608,-11.925,-18.825,-25.331251
1763129314185,0.24586253,2.673381,9.42174,0.47861254,-0.058795735,-0.1802051,0.05017846,-0.15726954,-0.8981193,-11.925,-18.825,-25.331251
1763129314186,0.5491528,3.0885358,9.065208,0.47861254,-0.058795735,-0.1802051,0.05017846,-0.15726954,-0.8981193,-11.925,-18.825,-25.331251
1763129314197,0.5491528,3.0885358,9.065208,0.47861254,-0.058795735,-0.1802051,0.05017846,-0.15726954,-0.8981193,-11.90625,-18.16875,-25.500002
1763129314203,0.5491528,3.0885358,9.065208,0.21930045,-0.053603385,-0.13530655,0.05017846,-0.15726954,-0.8981193,-11.90625,-18.16875,-25.500002
1763129314204,0.5491528,3.0885358,9.065208,0.21930045,-0.053603385,-0.13530655,0.05076339,-0.15950768,-0.8984186,-11.90625,-18.16875,-25.500002
1763129314204,0.5724828,3.3194432,8.558528,0.21930045,-0.053603385,-0.13530655,0.05076339,-0.15950768,-0.8984186,-11.90625,-18.16875,-25.500002
1763129314217,0.5724828,3.3194432,8.558528,0.21930045,-0.053603385,-0.13530655,0.05076339,-0.15950768,-0.8984186,-12.075001,-17.23125,-24.13125
1763129314224,0.5724828,3.3194432,8.558528,0.21930045,-0.053603385,-0.13530655,0.048717048,-0.15933278,-0.898994,-12.075001,-17.23125,-24.13125
1763129314225,0.25962126,3.2243285,8.563314,0.21930045,-0.053603385,-0.13530655,0.048717048,-0.15933278,-0.898994,-12.075001,-17.23125,-24.13125
1763129314227,0.25962126,3.2243285,8.563314,-0.107054055,-0.1847866,-0.08536835,0.048717048,-0.15933278,-0.898994,-12.075001,-17.23125,-24.13125
1763129314238,0.25962126,3.2243285,8.563314,-0.107054055,-0.1847866,-0.08536835,0.048717048,-0.15933278,-0.898994,-11.56875,-17.775002,-25.650002
1763129314244,0.25962126,3.2243285,8.563314,-0.107054055,-0.1847866,-0.08536835,0.044180505,-0.15803978,-0.8995803,-11.56875,-17.775002,-25.650002
1763129314245,0.25962126,3.2243285,8.563314,-0.30237806,-0.3594939,-0.010231985,0.044180505,-0.15803978,-0.8995803,-11.56875,-17.775002,-25.650002
1763129314246,0.29072794,3.2129626,8.915657,-0.30237806,-0.3594939,-0.010231985,0.044180505,-0.15803978,-0.8995803,-11.56875,-17.775002,-25.650002
1763129314259,0.29072794,3.2129626,8.915657,-0.30237806,-0.3594939,-0.010231985,0.044180505,-0.15803978,-0.8995803,-12.656251,-17.38125,-26.081251
1763129314266,0.29072794,3.2129626,8.915657,-0.27763805,-0.3752237,-0.004734202,0.044180505,-0.15803978,-0.8995803,-12.656251,-17.38125,-26.081251
1763129314267,0.6903293,3.2530425,9.498309,-0.27763805,-0.3752237,-0.004734202,0.044180505,-0.15803978,-0.8995803,-12.656251,-17.38125,-26.081251
1763129314279,0.6903293,3.2530425,9.498309,-0.27763805,-0.3752237,-0.004734202,0.044180505,-0.15803978,-0.8995803,-13.650001,-19.875,-26.025002
1763129314280,0.6903293,3.2530425,9.498309,-0.27763805,-0.3752237,-0.004734202,0.039593097,-0.15702724,-0.9000988,-13.650001,-19.875,-26.025002
1763129314287,0.6903293,3.2530425,9.498309,-0.12202024,-0.19730933,-0.06398808,0.039593097,-0.15702724,-0.9000988,-13.650001,-19.875,-26.025002
1763129314287,0.82971126,3.098107,9.8727865,-0.12202024,-0.19730933,-0.06398808,0.039593097,-0.15702724,-0.9000988,-13.650001,-19.875,-26.025002
1763129314297,0.82971126,3.098107,9.8727865,-0.12202024,-0.19730933,-0.06398808,0.03730972,-0.15672156,-0.9006355,-13.650001,-19.875,-26.025002
1763129314298,0.82971126,3.098107,9.8727865,-0.12202024,-0.19730933,-0.06398808,0.03730972,-0.15672156,-0.9006355,-12.675,-18.0375,-25.9125
1763129314308,0.82971126,3.098107,9.8727865,0.075594515,-0.002290743,-0.08735366,0.03730972,-0.15672156,-0.9006355,-12.675,-18.0375,-25.9125
1763129314309,0.590429,2.9593234,9.830912,0.075594515,-0.002290743,-0.08735366,0.03730972,-0.15672156,-0.9006355,-12.675,-18.0375,-25.9125
1763129314317,0.590429,2.9593234,9.830912,0.075594515,-0.002290743,-0.08735366,0.037646167,-0.15740594,-0.9009794,-12.675,-18.0375,-25.9125
1763129314318,0.590429,2.9593234,9.830912,0.075594515,-0.002290743,-0.08735366,0.037646167,-0.15740594,-0.9009794,-12.88125,-17.737501,-23.925001
1763129314328,0.590429,2.9593234,9.830912,0.25396705,0.07880156,-0.06536253,0.037646167,-0.15740594,-0.9009794,-12.88125,-17.737501,-23.925001
1763129314330,0.42891344,3.065804,9.594023,0.25396705,0.07880156,-0.06536253,0.037646167,-0.15740594,-0.9009794,-12.88125,-17.737501,-23.925001
1763129314339,0.42891344,3.065804,9.594023,0.25396705,0.07880156,-0.06536253,0.03950085,-0.15938058,-0.900904,-12.88125,-17.737501,-23.925001
1763129314339,0.42891344,3.065804,9.594023,0.25396705,0.07880156,-0.06536253,0.03950085,-0.15938058,-0.900904,-12.375001,-18.431252,-24.956251
1763129314350,0.42891344,3.065804,9.594023,0.33093598,0.12034036,-0.04856375,0.03950085,-0.15938058,-0.900904,-12.375001,-18.431252,-24.956251
1763129314351,0.37806597,3.0759735,9.326026,0.33093598,0.12034036,-0.04856375,0.03950085,-0.15938058,-0.900904,-12.375001,-18.431252,-24.956251
1763129314358,0.37806597,3.0759735,9.326026,0.33093598,0.12034036,-0.04856375,0.04210628,-0.16192046,-0.9005422,-12.375001,-18.431252,-24.956251
1763129314360,0.37806597,3.0759735,9.326026,0.33093598,0.12034036,-0.04856375,0.04210628,-0.16192046,-0.9005422,-13.81875,-19.743752,-24.88125
1763129314371,0.38644084,3.097509,9.148359,0.33093598,0.12034036,-0.04856375,0.04210628,-0.16192046,-0.9005422,-13.81875,-19.743752,-24.88125
1763129314372,0.38644084,3.097509,9.148359,0.27229297,0.16096286,-0.01725693,0.04210628,-0.16192046,-0.9005422,-13.81875,-19.743752,-24.88125
1763129314379,0.38644084,3.097509,9.148359,0.27229297,0.16096286,-0.01725693,0.044804215,-0.16375563,-0.90010566,-13.81875,-19.743752,-24.88125
1763129314380,0.38644084,3.097509,9.148359,0.27229297,0.16096286,-0.01725693,0.044804215,-0.16375563,-0.90010566,-14.700001,-19.931252,-23.587502
1763129314392,0.38644084,3.097509,9.148359,0.15439607,0.16340633,0.015424335,0.044804215,-0.16375563,-0.90010566,-14.700001,-19.931252,-23.587502
1763129314393,0.28414768,3.1669009,9.089137,0.15439607,0.16340633,0.015424335,0.044804215,-0.16375563,-0.90010566,-14.700001,-19.931252,-23.587502
1763129314397,0.28414768,3.1669009,9.089137,0.15439607,0.16340633,0.015424335,0.046965994,-0.16449581,-0.89972126,-14.700001,-19.931252,-23.587502
1763129314398,0.28414768,3.1669009,9.089137,0.15439607,0.16340633,0.015424335,0.046965994,-0.16449581,-0.89972126,-12.993751,-18.73125,-23.400002
1763129314413,0.28414768,3.1669009,9.089137,0.076358095,0.102472566,0.050396346,0.046965994,-0.16449581,-0.89972126,-12.993751,-18.73125,-23.400002
1763129314414,0.24765715,3.2434711,9.0436735,0.076358095,0.102472566,0.050396346,0.046965994,-0.16449581,-0.89972126,-12.993751,-18.73125,-23.400002
1763129314419,0.24765715,3.2434711,9.0436735,0.076358095,0.102472566,0.050396346,0.04820704,-0.16477643,-0.8993108,-12.993751,-18.73125,-23.400002
1763129314420,0.24765715,3.2434711,9.0436735,0.076358095,0.102472566,0.050396346,0.04820704,-0.16477643,-0.8993108,-12.918751,-19.03125,-24.056252
1763129314434,0.24765715,3.2434711,9.0436735,0.04703659,0.07880156,0.064140804,0.04820704,-0.16477643,-0.8993108,-12.918751,-19.03125,-24.056252
1763129314435,0.33200413,3.225525,9.116654,0.04703659,0.07880156,0.064140804,0.04820704,-0.16477643,-0.8993108,-12.918751,-19.03125,-24.056252
1763129314438,0.33200413,3.225525,9.116654,0.04703659,0.07880156,0.064140804,0.04910138,-0.16489919,-0.8988745,-12.918751,-19.03125,-24.056252
1763129314439,0.33200413,3.225525,9.116654,0.04703659,0.07880156,0.064140804,0.04910138,-0.16489919,-0.8988745,-13.9125,-20.868752,-23.85
1763129314455,0.33200413,3.225525,9.116654,0.03405571,0.10476331,0.0697913,0.04910138,-0.16489919,-0.8988745,-13.9125,-20.868752,-23.85
1763129314456,0.44027936,3.32722,9.016156,0.03405571,0.10476331,0.0697913,0.04910138,-0.16489919,-0.8988745,-13.9125,-20.868752,-23.85
1763129314459,0.44027936,3.32722,9.016156,0.03405571,0.10476331,0.0697913,0.05013331,-0.16479601,-0.8984578,-13.9125,-20.868752,-23.85
1763129314460,0.44027936,3.32722,9.016156,0.03405571,0.10476331,0.0697913,0.05013331,-0.16479601,-0.8984578,-11.418751,-18.712502,-25.968752
1763129314476,0.44027936,3.32722,9.016156,0.01970039,0.07391464,0.05070178,0.05013331,-0.16479601,-0.8984578,-11.418751,-18.712502,-25.968752
1763129314476,0.45104706,3.423531,8.892925,0.01970039,0.07391464,0.05070178,0.05013331,-0.16479601,-0.8984578,-11.418751,-18.712502,-25.968752
1763129314478,0.45104706,3.423531,8.892925,0.01970039,0.07391464,0.05070178,0.050833337,-0.16471796,-0.8981497,-11.418751,-18.712502,-25.968752
1763129314480,0.45104706,3.423531,8.892925,0.01970039,0.07391464,0.05070178,0.050833337,-0.16471796,-0.8981497,-12.637501,-20.60625,-26.437502
1763129314498,0.45104706,3.423531,8.892925,0.01970039,0.07391464,0.05070178,0.050833337,-0.16471796,-0.8981497,-12.618751,-19.29375,-25.25625
1763129314499,0.45104706,3.423531,8.892925,0.031459536,0.026572619,0.038179047,0.050833337,-0.16471796,-0.8981497,-12.618751,-19.29375,-25.25625
1763129314501,0.45104706,3.423531,8.892925,0.031459536,0.026572619,0.038179047,0.051179312,-0.16497189,-0.89786357,-12.618751,-19.29375,-25.25625
1763129314503,0.41994038,3.3822548,9.01795,0.031459536,0.026572619,0.038179047,0.051179312,-0.16497189,-0.89786357,-12.618751,-19.29375,-25.25625
1763129314518,0.3924229,3.3702908,9.185448,0.031459536,0.026572619,0.038179047,0.051179312,-0.16497189,-0.89786357,-12.618751,-19.29375,-25.25625
1763129314519,0.3924229,3.3702908,9.185448,0.031459536,0.026572619,0.038179047,0.05181679,-0.16538492,-0.89757365,-12.618751,-19.29375,-25.25625
1763129314521,0.3924229,3.3702908,9.185448,0.059253883,0.04459313,0.030695954,0.05181679,-0.16538492,-0.89757365,-12.618751,-19.29375,-25.25625
1763129314523,0.3924229,3.3702908,9.185448,0.059253883,0.04459313,0.030695954,0.05181679,-0.16538492,-0.89757365,-10.8,-18.4125,-27.375002
1763129314538,0.3924229,3.3702908,9.185448,0.059253883,0.04459313,0.030695954,0.05181679,-0.16538492,-0.89757365,-12.281251,-18.900002,-25.406252
1763129314539,0.3924229,3.3702908,9.185448,0.060781047,0.10720677,0.026725333,0.05181679,-0.16538492,-0.89757365,-12.281251,-18.900002,-25.406252
1763129314541,0.3924229,3.3702908,9.185448,0.060781047,0.10720677,0.026725333,0.05305733,-0.16552119,-0.8972524,-12.281251,-18.900002,-25.406252
1763129314542,0.33499518,3.4073794,9.023932,0.060781047,0.10720677,0.026725333,0.05305733,-0.16552119,-0.8972524,-12.281251,-18.900002,-25.406252
1763129314557,0.33499518,3.4073794,9.023932,0.060781047,0.10720677,0.026725333,0.05305733,-0.16552119,-0.8972524,-11.606251,-20.025002,-24.468752
1763129314560,0.3188436,3.3990045,8.886943,0.060781047,0.10720677,0.026725333,0.05305733,-0.16552119,-0.8972524,-11.606251,-20.025002,-24.468752
1763129314562,0.3188436,3.3990045,8.886943,0.022601997,0.057726722,0.019394957,0.05305733,-0.16552119,-0.8972524,-11.606251,-20.025002,-24.468752
1763129314579,0.3188436,3.3990045,8.886943,0.022601997,0.057726722,0.019394957,0.05305733,-0.16552119,-0.8972524,-12.712501,-20.2875,-24.4125
1763129314583,0.3188436,3.3990045,8.886943,-0.018173227,-0.005497783,0.020922119,0.05305733,-0.16552119,-0.8972524,-12.712501,-20.2875,-24.4125
1763129314584,0.3188436,3.3990045,8.886943,-0.018173227,-0.005497783,0.020922119,0.053924095,-0.16563389,-0.8967725,-12.712501,-20.2875,-24.4125
1763129314586,0.3684947,3.3547373,9.061021,-0.018173227,-0.005497783,0.020922119,0.053924095,-0.16563389,-0.8967725,-12.712501,-20.2875,-24.4125
1763129314587,0.3684947,3.3547373,9.061021,-0.018173227,-0.005497783,0.020922119,0.05411502,-0.16566631,-0.8962588,-12.712501,-20.2875,-24.4125
1763129314598,0.3684947,3.3547373,9.061021,-0.018173227,-0.005497783,0.020922119,0.05411502,-0.16566631,-0.8962588,-12.562501,-18.956251,-23.962502
1763129314602,0.3684947,3.3547373,9.061021,-0.032375835,0.032833982,0.012370012,0.05411502,-0.16566631,-0.8962588,-12.562501,-18.956251,-23.962502
1763129314603,0.3684947,3.3547373,9.061021,-0.032375835,0.032833982,0.012370012,0.0543493,-0.16531926,-0.8961097,-12.562501,-18.956251,-23.962502
1763129314603,0.3188436,3.286542,9.223135,-0.032375835,0.032833982,0.012370012,0.0543493,-0.16531926,-0.8961097,-12.562501,-18.956251,-23.962502
1763129314618,0.3188436,3.286542,9.223135,-0.032375835,0.032833982,0.012370012,0.0543493,-0.16531926,-0.8961097,-12.675,-18.0375,-26.212502
1763129314623,0.3188436,3.286542,9.223135,-0.012064579,0.058337588,0.03695732,0.0543493,-0.16531926,-0.8961097,-12.675,-18.0375,-26.212502
1763129314624,0.3188436,3.286542,9.223135,-0.012064579,0.058337588,0.03695732,0.054805417,-0.16487138,-0.89596677,-12.675,-18.0375,-26.212502
1763129314625,0.22372891,3.2590244,9.262018,-0.012064579,0.058337588,0.03695732,0.054805417,-0.16487138,-0.89596677,-12.675,-18.0375,-26.212502
1763129314638,0.22372891,3.2590244,9.262018,-0.012064579,0.058337588,0.03695732,0.054805417,-0.16487138,-0.89596677,-12.806251,-19.66875,-24.768751
1763129314646,0.317049,3.3559337,9.175279,-0.012064579,0.058337588,0.03695732,0.054805417,-0.16487138,-0.89596677,-12.806251,-19.66875,-24.768751
1763129314647,0.317049,3.3559337,9.175279,-0.012064579,0.058337588,0.03695732,0.055531323,-0.16449891,-0.89564997,-12.806251,-19.66875,-24.768751
1763129314648,0.317049,3.3559337,9.175279,0.011911863,0.06582068,0.056810424,0.055531323,-0.16449891,-0.89564997,-12.806251,-19.66875,-24.768751
1763129314657,0.317049,3.3559337,9.175279,0.011911863,0.06582068,0.056810424,0.055531323,-0.16449891,-0.89564997,-12.356251,-18.6,-24.750002
1763129314665,0.317049,3.3559337,9.175279,0.011911863,0.06582068,0.056810424,0.056277957,-0.16430594,-0.8952889,-12.356251,-18.6,-24.750002
1763129314666,0.31286156,3.4253256,9.1052885,0.011911863,0.06582068,0.056810424,0.056277957,-0.16430594,-0.8952889,-12.356251,-18.6,-24.750002
1763129314667,0.31286156,3.4253256,9.1052885,0.008399391,0.075594515,0.048258316,0.056277957,-0.16430594,-0.8952889,-12.356251,-18.6,-24.750002
1763129314678,0.31286156,3.4253256,9.1052885,0.008399391,0.075594515,0.048258316,0.056277957,-0.16430594,-0.8952889,-11.53125,-18.09375,-25.706251
1763129314686,0.31286156,3.4253256,9.1052885,-0.0059559317,0.035124727,0.030390523,0.056277957,-0.16430594,-0.8952889,-11.53125,-18.09375,-25.706251
1763129314687,0.2620141,3.3960135,9.104092,-0.0059559317,0.035124727,0.030390523,0.056277957,-0.16430594,-0.8952889,-11.53125,-18.09375,-25.706251
1763129314699,0.2620141,3.3960135,9.104092,-0.0059559317,0.035124727,0.030390523,0.056746956,-0.16425453,-0.89483666,-11.53125,-18.09375,-25.706251
1763129314699,0.2620141,3.3960135,9.104092,-0.0059559317,0.035124727,0.030390523,0.056746956,-0.16425453,-0.89483666,-10.762501,-17.41875,-24.300001
1763129314707,0.2620141,3.3960135,9.104092,-0.0010690134,0.014813471,0.03161225,0.056746956,-0.16425453,-0.89483666,-10.762501,-17.41875,-24.300001
1763129314708,0.2650051,3.3230324,9.247063,-0.0010690134,0.014813471,0.03161225,0.056746956,-0.16425453,-0.89483666,-10.762501,-17.41875,-24.300001
1763129314717,0.2650051,3.3230324,9.247063,-0.0010690134,0.014813471,0.03161225,0.05709862,-0.16425475,-0.8943962,-10.762501,-17.41875,-24.300001
1763129314718,0.2650051,3.3230324,9.247063,-0.0010690134,0.014813471,0.03161225,0.05709862,-0.16425475,-0.8943962,-13.087501,-20.362501,-24.806252
1763129314727,0.2650051,3.3230324,9.247063,0.02611447,0.062002774,0.041844238,0.05709862,-0.16425475,-0.8943962,-13.087501,-20.362501,-24.806252
1763129314728,0.25722843,3.2859437,9.218349,0.02611447,0.062002774,0.041844238,0.05709862,-0.16425475,-0.8943962,-13.087501,-20.362501,-24.806252
1763129314737,0.25722843,3.2859437,9.218349,0.02611447,0.062002774,0.041844238,0.057789873,-0.16416205,-0.8941167,-13.087501,-20.362501,-24.806252
1763129314738,0.25722843,3.2859437,9.218349,0.02611447,0.062002774,0.041844238,0.057789873,-0.16416205,-0.8941167,-12.093751,-18.54375,-25.462502
1763129314749,0.25722843,3.2859437,9.218349,0.046883874,0.07971785,0.04703659,0.057789873,-0.16416205,-0.8941167,-12.093751,-18.54375,-25.462502
1763129314750,0.27936205,3.3631122,9.041281,0.046883874,0.07971785,0.04703659,0.057789873,-0.16416205,-0.8941167,-12.093751,-18.54375,-25.462502
1763129314758,0.27936205,3.3631122,9.041281,0.046883874,0.07971785,0.04703659,0.058656868,-0.16415778,-0.89387053,-12.093751,-18.54375,-25.462502
1763129314759,0.27936205,3.3631122,9.041281,0.046883874,0.07971785,0.04703659,0.058656868,-0.16415778,-0.89387053,-11.19375,-17.7,-27.075
1763129314770,0.3361916,3.4360933,8.976674,0.046883874,0.07971785,0.04703659,0.058656868,-0.16415778,-0.89387053,-11.19375,-17.7,-27.075
1763129314771,0.3361916,3.4360933,8.976674,0.031459536,0.07299834,0.029168794,0.058656868,-0.16415778,-0.89387053,-11.19375,-17.7,-27.075
1763129314779,0.3361916,3.4360933,8.976674,0.031459536,0.07299834,0.029168794,0.059528563,-0.16422659,-0.8935031,-11.19375,-17.7,-27.075
1763129314780,0.3361916,3.4360933,8.976674,0.031459536,0.07299834,0.029168794,0.059528563,-0.16422659,-0.8935031,-11.043751,-17.962502,-24.54375
1763129314791,0.3361916,3.4360933,8.976674,-0.004734202,0.029626941,0.015424335,0.059528563,-0.16422659,-0.8935031,-11.043751,-17.962502,-24.54375
1763129314792,0.32063824,3.4648073,8.846864,-0.004734202,0.029626941,0.015424335,0.059528563,-0.16422659,-0.8935031,-11.043751,-17.962502,-24.54375
1763129314797,0.32063824,3.4648073,8.846864,-0.004734202,0.029626941,0.015424335,0.05984983,-0.16430765,-0.8931977,-11.043751,-17.962502,-24.54375
1763129314798,0.32063824,3.4648073,8.846864,-0.004734202,0.029626941,0.015424335,0.05984983,-0.16430765,-0.8931977,-12.356251,-19.237501,-25.800001
1763129314812,0.32063824,3.4648073,8.846864,-0.014202606,-0.021380268,0.008857539,0.05984983,-0.16430765,-0.8931977,-12.356251,-19.237501,-25.800001
1763129314813,0.26620153,3.394817,9.101101,-0.014202606,-0.021380268,0.008857539,0.05984983,-0.16430765,-0.8931977,-12.356251,-19.237501,-25.800001
1763129314817,0.26620153,3.394817,9.101101,-0.014202606,-0.021380268,0.008857539,0.05981112,-0.16458492,-0.89277303,-12.356251,-19.237501,-25.800001
1763129314819,0.26620153,3.394817,9.101101,-0.014202606,-0.021380268,0.008857539,0.05981112,-0.16458492,-0.89277303,-9.150001,-17.85,-24.768751
1763129314833,0.26620153,3.394817,9.101101,0.010384701,0.033139415,0.020311253,0.05981112,-0.16458492,-0.89277303,-9.150001,-17.85,-24.768751
1763129314834,0.293719,3.3529427,9.291928,0.010384701,0.033139415,0.020311253,0.05981112,-0.16458492,-0.89277303,-9.150001,-17.85,-24.768751
1763129314838,0.293719,3.3529427,9.291928,0.010384701,0.033139415,0.020311253,0.06026034,-0.1646054,-0.89248455,-9.150001,-17.85,-24.768751
1763129314839,0.293719,3.3529427,9.291928,0.010384701,0.033139415,0.020311253,0.06026034,-0.1646054,-0.89248455,-11.118751,-19.10625,-24.562502
1763129314854,0.293719,3.3529427,9.291928,0.004581486,0.091477,0.015729768,0.06026034,-0.1646054,-0.89248455,-11.118751,-19.10625,-24.562502
1763129314855,0.3044867,3.463611,9.041879,0.004581486,0.091477,0.015729768,0.06026034,-0.1646054,-0.89248455,-11.118751,-19.10625,-24.562502
1763129314859,0.3044867,3.463611,9.041879,0.004581486,0.091477,0.015729768,0.06099913,-0.16421443,-0.8924703,-11.118751,-19.10625,-24.562502
1763129314863,0.3044867,3.463611,9.041879,0.004581486,0.091477,0.015729768,0.06099913,-0.16421443,-0.8924703,-11.00625,-17.475,-24.956251
1763129314874,0.3044867,3.463611,9.041879,-0.032833982,0.034819294,-4.581486E-4,0.06099913,-0.16421443,-0.8924703,-11.00625,-17.475,-24.956251
1763129314875,0.20877378,3.44387,9.017352,-0.032833982,0.034819294,-4.581486E-4,0.06099913,-0.16421443,-0.8924703,-11.00625,-17.475,-24.956251
1763129314878,0.20877378,3.44387,9.017352,-0.032833982,0.034819294,-4.581486E-4,0.061292864,-0.16398658,-0.89228004,-11.00625,-17.475,-24.956251
1763129314878,0.20877378,3.44387,9.017352,-0.032833982,0.034819294,-4.581486E-4,0.061292864,-0.16398658,-0.89228004,-12.712501,-18.675001,-24.843752
1763129314896,0.20877378,3.44387,9.017352,-0.056810424,0.024281874,6.108648E-4,0.061292864,-0.16398658,-0.89228004,-12.712501,-18.675001,-24.843752
1763129314897,0.19322042,3.2650065,9.296714,-0.056810424,0.024281874,6.108648E-4,0.061292864,-0.16398658,-0.89228004,-12.712501,-18.675001,-24.843752
1763129314899,0.19322042,3.2650065,9.296714,-0.056810424,0.024281874,6.108648E-4,0.061580427,-0.16348758,-0.89199173,-12.712501,-18.675001,-24.843752
1763129314900,0.19322042,3.2650065,9.296714,-0.056810424,0.024281874,6.108648E-4,0.061580427,-0.16348758,-0.89199173,-11.0625,-17.962502,-23.493752
1763129314918,0.19322042,3.2650065,9.296714,-0.033597562,0.092546016,0.033597562,0.061580427,-0.16348758,-0.89199173,-11.0625,-17.962502,-23.493752
1763129314919,0.19322042,3.2650065,9.296714,-0.033597562,0.092546016,0.033597562,0.061580427,-0.16348758,-0.89199173,-12.3,-18.75,-26.362501
1763129314920,0.16450655,3.2219357,9.472587,-0.033597562,0.092546016,0.033597562,0.061580427,-0.16348758,-0.89199173,-12.3,-18.75,-26.362501
1763129314923,0.16450655,3.2219357,9.472587,-0.033597562,0.092546016,0.033597562,0.062189296,-0.16259526,-0.8920077,-12.3,-18.75,-26.362501
1763129314939,0.16450655,3.2219357,9.472587,-0.033597562,0.092546016,0.033597562,0.063718215,-0.16151899,-0.8919273,-12.3,-18.75,-26.362501
1763129314940,0.16450655,3.2219357,9.472587,-0.033597562,0.092546016,0.033597562,0.063718215,-0.16151899,-0.8919273,-11.53125,-19.6875,-25.125002
1763129314941,0.16450655,3.2219357,9.472587,0.004581486,0.1924224,0.06459895,0.063718215,-0.16151899,-0.8919273,-11.53125,-19.6875,-25.125002
1763129314942,0.17706887,3.2338998,9.342776,0.004581486,0.1924224,0.06459895,0.063718215,-0.16151899,-0.8919273,-11.53125,-19.6875,-25.125002
1763129314958,0.17706887,3.2338998,9.342776,0.004581486,0.1924224,0.06459895,0.063718215,-0.16151899,-0.8919273,-11.56875,-19.518751,-23.98125
1763129314960,0.17706887,3.2338998,9.342776,0.004734202,0.2122755,0.07895427,0.063718215,-0.16151899,-0.8919273,-11.56875,-19.518751,-23.98125
1763129314961,0.17706887,3.2338998,9.342776,0.004734202,0.2122755,0.07895427,0.06537138,-0.16050415,-0.8917514,-11.56875,-19.518751,-23.98125
1763129314962,0.16271193,3.2961133,9.132208,0.004734202,0.2122755,0.07895427,0.06537138,-0.16050415,-0.8917514,-11.56875,-19.518751,-23.98125
1763129314978,0.16271193,3.2961133,9.132208,0.004734202,0.2122755,0.07895427,0.06537138,-0.16050415,-0.8917514,-10.63125,-18.1875,-25.10625
1763129314979,0.16271193,3.2961133,9.132208,0.004734202,0.2122755,0.07895427,0.06708231,-0.1593215,-0.89130205,-10.63125,-18.1875,-25.10625
1763129314981,0.16271193,3.2961133,9.132208,-0.031154104,0.22006404,0.08811724,0.06708231,-0.1593215,-0.89130205,-10.63125,-18.1875,-25.10625
1763129314982,0.06999006,3.345166,9.214162,-0.031154104,0.22006404,0.08811724,0.06708231,-0.1593215,-0.89130205,-10.63125,-18.1875,-25.10625
1763129314997,0.06999006,3.345166,9.214162,-0.031154104,0.22006404,0.08811724,0.06708231,-0.1593215,-0.89130205,-10.856251,-18.393751,-24.225
1763129315001,0.03708875,3.1603205,9.266804,-0.031154104,0.22006404,0.08811724,0.06708231,-0.1593215,-0.89130205,-10.856251,-18.393751,-24.225
1763129315002,0.03708875,3.1603205,9.266804,-0.075289086,0.27550003,0.115911596,0.06708231,-0.1593215,-0.89130205,-10.856251,-18.393751,-24.225
1763129315003,0.03708875,3.1603205,9.266804,-0.075289086,0.27550003,0.115911596,0.069225244,-0.15749225,-0.89061075,-10.856251,-18.393751,-24.225
1763129315019,0.03708875,3.1603205,9.266804,-0.075289086,0.27550003,0.115911596,0.069225244,-0.15749225,-0.89061075,-12.187501,-19.66875,-23.6625
1763129315022,-0.047856454,3.1166515,9.367303,-0.075289086,0.27550003,0.115911596,0.069225244,-0.15749225,-0.89061075,-12.187501,-19.66875,-23.6625
1763129315023,-0.047856454,3.1166515,9.367303,-0.075289086,0.27550003,0.115911596,0.07101505,-0.1551738,-0.8900806,-12.187501,-19.66875,-23.6625
1763129315025,-0.047856454,3.1166515,9.367303,-0.10415245,0.2913825,0.17577635,0.07101505,-0.1551738,-0.8900806,-12.187501,-19.66875,-23.6625
1763129315038,-0.047856454,3.1166515,9.367303,-0.10415245,0.2913825,0.17577635,0.07101505,-0.1551738,-0.8900806,-10.44375,-19.125,-26.475
1763129315043,-0.047856454,3.1166515,9.367303,-0.14156792,0.31826055,0.25305074,0.07101505,-0.1551738,-0.8900806,-10.44375,-19.125,-26.475
1763129315043,-0.047856454,3.1166515,9.367303,-0.14156792,0.31826055,0.25305074,0.07278639,-0.15235797,-0.8892837,-10.44375,-19.125,-26.475
1763129315045,-0.21714866,2.9659038,9.601799,-0.14156792,0.31826055,0.25305074,0.07278639,-0.15235797,-0.8892837,-10.44375,-19.125,-26.475
1763129315058,-0.21714866,2.9659038,9.601799,-0.14156792,0.31826055,0.25305074,0.07278639,-0.15235797,-0.8892837,-10.21875,-18.2625,-25.125002
1763129315064,-0.38644084,2.7068806,9.396016,-0.14156792,0.31826055,0.25305074,0.07278639,-0.15235797,-0.8892837,-10.21875,-18.2625,-25.125002
1763129315065,-0.38644084,2.7068806,9.396016,-0.14156792,0.31826055,0.25305074,0.074205644,-0.14862017,-0.88813895,-10.21875,-18.2625,-25.125002
1763129315067,-0.38644084,2.7068806,9.396016,-0.20906848,0.33169958,0.38545567,0.074205644,-0.14862017,-0.88813895,-10.21875,-18.2625,-25.125002
1763129315079,-0.38644084,2.7068806,9.396016,-0.20906848,0.33169958,0.38545567,0.074205644,-0.14862017,-0.88813895,-9.88125,-18.825,-24.73125
1763129315086,-0.38644084,2.7068806,9.396016,-0.20906848,0.33169958,0.38545567,0.07983494,-0.144564,-0.8865106,-9.88125,-18.825,-24.73125
1763129315087,-0.38644084,2.7068806,9.396016,-0.03405571,0.716239,0.41737336,0.07983494,-0.144564,-0.8865106,-9.88125,-18.825,-24.73125
1763129315088,-0.43848476,3.0388846,9.9015,-0.03405571,0.716239,0.41737336,0.07983494,-0.144564,-0.8865106,-9.88125,-18.825,-24.73125
1763129315098,-0.43848476,3.0388846,9.9015,-0.03405571,0.716239,0.41737336,0.07983494,-0.144564,-0.8865106,-9.543751,-16.837502,-26.212502
1763129315106,-0.43848476,3.0388846,9.9015,0.6582068,0.8286381,0.1423315,0.07983494,-0.144564,-0.8865106,-9.543751,-16.837502,-26.212502
1763129315106,-0.02751746,3.9080775,9.2997055,0.6582068,0.8286381,0.1423315,0.07983494,-0.144564,-0.8865106,-9.543751,-16.837502,-26.212502
1763129315118,-0.02751746,3.9080775,9.2997055,0.6582068,0.8286381,0.1423315,0.08984071,-0.1463753,-0.885054,-9.543751,-16.837502,-26.212502
1763129315119,-0.02751746,3.9080775,9.2997055,0.6582068,0.8286381,0.1423315,0.08984071,-0.1463753,-0.885054,-10.125,-18.88125,-24.7875
1763129315126,-0.02751746,3.9080775,9.2997055,0.9135483,0.29290965,-0.003817905,0.08984071,-0.1463753,-0.885054,-10.125,-18.88125,-24.7875
1763129315127,-0.2428715,4.089932,7.8867435,0.9135483,0.29290965,-0.003817905,0.08984071,-0.1463753,-0.885054,-10.125,-18.88125,-24.7875
1763129315138,-0.2428715,4.089932,7.8867435,0.9135483,0.29290965,-0.003817905,0.096485764,-0.15428168,-0.88308644,-10.125,-18.88125,-24.7875
1763129315138,-0.2428715,4.089932,7.8867435,0.9135483,0.29290965,-0.003817905,0.096485764,-0.15428168,-0.88308644,-10.575001,-19.96875,-26.587502
1763129315147,-0.2428715,4.089932,7.8867435,0.3251328,-0.23243405,-0.049480047,0.096485764,-0.15428168,-0.88308644,-10.575001,-19.96875,-26.587502
1763129315148,-0.6681957,3.839284,6.966703,0.3251328,-0.23243405,-0.049480047,0.096485764,-0.15428168,-0.88308644,-10.575001,-19.96875,-26.587502
1763129315157,-0.6681957,3.839284,6.966703,0.3251328,-0.23243405,-0.049480047,0.09719229,-0.15935974,-0.8809229,-10.575001,-19.96875,-26.587502
1763129315158,-0.6681957,3.839284,6.966703,0.3251328,-0.23243405,-0.049480047,0.09719229,-0.15935974,-0.8809229,-9.6,-18.28125,-24.7875
1763129315168,-0.6681957,3.839284,6.966703,-0.55695593,-0.62781626,0.07849612,0.09719229,-0.15935974,-0.8809229,-9.6,-18.28125,-24.7875
1763129315169,-0.63529444,3.1980073,7.347162,-0.55695593,-0.62781626,0.07849612,0.09719229,-0.15935974,-0.8809229,-9.6,-18.28125,-24.7875
1763129315179,-0.63529444,3.1980073,7.347162,-0.55695593,-0.62781626,0.07849612,0.09719229,-0.15935974,-0.8809229,-9.84375,-19.125,-24.6375
1763129315197,-0.63529444,3.1980073,7.347162,-0.97448206,-0.893237,0.22128576,0.09719229,-0.15935974,-0.8809229,-9.84375,-19.125,-24.6375
1763129315198,0.3792624,3.1663027,8.366505,-0.97448206,-0.893237,0.22128576,0.09719229,-0.15935974,-0.8809229,-9.84375,-19.125,-24.6375
1763129315198,0.3792624,3.1663027,8.366505,-0.97448206,-0.893237,0.22128576,0.089123406,-0.1572464,-0.8815915,-9.84375,-19.125,-24.6375
1763129315199,0.3792624,3.1663027,8.366505,-0.97448206,-0.893237,0.22128576,0.07634633,-0.15250072,-0.8825909,-9.84375,-19.125,-24.6375
1763129315200,0.3792624,3.1663027,8.366505,-0.97448206,-0.893237,0.22128576,0.07634633,-0.15250072,-0.8825909,-10.63125,-18.0375,-25.612501
