timestamp,accX,accY,accZ,gyroX,gyroY,gyroZ,rotX,rotY,rotZ,magX,magY,magZ
1763129362862,-1.8364913,7.033104,5.977271,-0.016493348,-0.4251619,-0.023823727,0.41486594,0.06701019,-0.047705814,2.23125,-2.71875,-35.925003
1763129362863,-1.8364913,7.033104,5.977271,-0.016493348,-0.4251619,-0.023823727,0.41450536,0.06312495,-0.049898136,2.23125,-2.71875,-35.925003
1763129362864,-1.8646071,7.0097737,6.052047,-0.016493348,-0.4251619,-0.023823727,0.41450536,0.06312495,-0.049898136,2.23125,-2.71875,-35.925003
1763129362894,-1.8646071,7.0097737,6.052047,-0.016493348,-0.4251619,-0.023823727,0.41450536,0.06312495,-0.049898136,-1.03125,-4.0875,-33.1875
1763129362895,-1.8646071,7.0097737,6.052047,0.01970039,-0.53343767,6.108648E-4,0.41450536,0.06312495,-0.049898136,-1.03125,-4.0875,-33.1875
1763129362896,-1.8646071,7.0097737,6.052047,0.01970039,-0.53343767,6.108648E-4,0.4144168,0.058142066,-0.052281473,-1.03125,-4.0875,-33.1875
1763129362897,-1.6139588,6.9009004,6.358328,0.01970039,-0.53343767,6.108648E-4,0.4144168,0.058142066,-0.052281473,-1.03125,-4.0875,-33.1875
1763129362898,-1.6139588,6.9009004,6.358328,0.01970039,-0.53343767,6.108648E-4,0.4144168,0.058142066,-0.052281473,2.5687501,-1.0125,-34.443752
1763129362904,-1.6139588,6.9009004,6.358328,-0.053450666,-0.4149299,0.01847866,0.4144168,0.058142066,-0.052281473,2.5687501,-1.0125,-34.443752
1763129362904,-1.6139588,6.9009004,6.358328,-0.053450666,-0.4149299,0.01847866,0.41363552,0.054172616,-0.0539748,2.5687501,-1.0125,-34.443752
1763129362905,-1.3722838,7.018747,6.6711893,-0.053450666,-0.4149299,0.01847866,0.41363552,0.054172616,-0.0539748,2.5687501,-1.0125,-34.443752
1763129362918,-1.3722838,7.018747,6.6711893,-0.053450666,-0.4149299,0.01847866,0.41363552,0.054172616,-0.0539748,-0.69375,-6.1125,-34.068752
1763129362925,-1.3722838,7.018747,6.6711893,-0.10522146,-0.25977024,0.016340632,0.41363552,0.054172616,-0.0539748,-0.69375,-6.1125,-34.068752
1763129362926,-1.3722838,7.018747,6.6711893,-0.10522146,-0.25977024,0.016340632,0.41240776,0.051687304,-0.05490423,-0.69375,-6.1125,-34.068752
1763129362926,-1.3016955,7.0875406,6.532406,-0.10522146,-0.25977024,0.016340632,0.41240776,0.051687304,-0.05490423,-0.69375,-6.1125,-34.068752
1763129362939,-1.3016955,7.0875406,6.532406,-0.10522146,-0.25977024,0.016340632,0.41240776,0.051687304,-0.05490423,0.73125005,-3.05625,-34.912502
1763129362946,-1.3016955,7.0875406,6.532406,-0.08460477,-0.3188714,0.0013744457,0.41240776,0.051687304,-0.05490423,0.73125005,-3.05625,-34.912502
1763129362948,-1.422533,7.274181,6.3278193,-0.08460477,-0.3188714,0.0013744457,0.41240776,0.051687304,-0.05490423,0.73125005,-3.05625,-34.912502
1763129362958,-1.422533,7.274181,6.3278193,-0.08460477,-0.3188714,0.0013744457,0.4113701,0.0486889,-0.056228146,0.73125005,-3.05625,-34.912502
1763129362959,-1.422533,7.274181,6.3278193,-0.08460477,-0.3188714,0.0013744457,0.4113701,0.0486889,-0.056228146,0.26250002,-3.9750001,-35.86875
1763129362966,-1.422533,7.274181,6.3278193,-0.04459313,-0.47280934,-0.002290743,0.4113701,0.0486889,-0.056228146,0.26250002,-3.9750001,-35.86875
1763129362967,-1.4919249,7.170093,6.19083,-0.04459313,-0.47280934,-0.002290743,0.4113701,0.0486889,-0.056228146,0.26250002,-3.9750001,-35.86875
1763129362977,-1.4919249,7.170093,6.19083,-0.04459313,-0.47280934,-0.002290743,0.41067404,0.04435139,-0.058074865,0.26250002,-3.9750001,-35.86875
1763129362978,-1.4919249,7.170093,6.19083,-0.04459313,-0.47280934,-0.002290743,0.41067404,0.04435139,-0.058074865,1.725,-1.8750001,-37.65
1763129362990,-1.4919249,7.170093,6.19083,-0.01527162,-0.616668,0.031917684,0.41067404,0.04435139,-0.058074865,1.725,-1.8750001,-37.65
1763129362991,-1.3627125,7.0809603,6.4414787,-0.01527162,-0.616668,0.031917684,0.41067404,0.04435139,-0.058074865,1.725,-1.8750001,-37.65
1763129362998,-1.3627125,7.0809603,6.4414787,-0.01527162,-0.616668,0.031917684,0.41019726,0.038394373,-0.060513906,1.725,-1.8750001,-37.65
1763129362999,-1.3627125,7.0809603,6.4414787,-0.01527162,-0.616668,0.031917684,0.41019726,0.038394373,-0.060513906,-1.1437501,-3.16875,-36.1875
1763129363009,-1.3627125,7.0809603,6.4414787,0.030695954,-0.56642437,0.05070178,0.41019726,0.038394373,-0.060513906,-1.1437501,-3.16875,-36.1875
1763129363010,-0.85842514,7.1228347,7.2646093,0.030695954,-0.56642437,0.05070178,0.41019726,0.038394373,-0.060513906,-1.1437501,-3.16875,-36.1875
1763129363019,-0.85842514,7.1228347,7.2646093,0.030695954,-0.56642437,0.05070178,0.4101271,0.032757368,-0.06265116,-1.1437501,-3.16875,-36.1875
1763129363020,-0.85842514,7.1228347,7.2646093,0.030695954,-0.56642437,0.05070178,0.4101271,0.032757368,-0.06265116,1.0875001,-2.025,-36.28125
1763129363030,-0.85842514,7.1228347,7.2646093,0.09392046,-0.34300056,-0.011759147,0.4101271,0.032757368,-0.06265116,1.0875001,-2.025,-36.28125
1763129363031,-0.64008003,7.266404,7.0893354,0.09392046,-0.34300056,-0.011759147,0.4101271,0.032757368,-0.06265116,1.0875001,-2.025,-36.28125
1763129363038,-0.64008003,7.266404,7.0893354,0.09392046,-0.34300056,-0.011759147,0.4106139,0.029601447,-0.06386322,1.0875001,-2.025,-36.28125
1763129363040,-0.64008003,7.266404,7.0893354,0.09392046,-0.34300056,-0.011759147,0.4106139,0.029601447,-0.06386322,-0.0,-2.2687502,-36.54375
1763129363051,-0.64008003,7.266404,7.0893354,0.0754418,-0.21884231,-0.062155493,0.4106139,0.029601447,-0.06386322,-0.0,-2.2687502,-36.54375
1763129363052,-1.0259227,7.228119,6.4911294,0.0754418,-0.21884231,-0.062155493,0.4106139,0.029601447,-0.06386322,-0.0,-2.2687502,-36.54375
1763129363058,-1.0259227,7.228119,6.4911294,0.0754418,-0.21884231,-0.062155493,0.4106139,0.029601447,-0.06386322,-0.45000002,-2.04375,-34.912502
1763129363059,-1.0259227,7.228119,6.4911294,0.0754418,-0.21884231,-0.062155493,0.41103888,0.027821684,-0.06497083,-0.45000002,-2.04375,-34.912502
1763129363072,-1.0259227,7.228119,6.4911294,0.011606431,-0.22479823,-0.031306818,0.41103888,0.027821684,-0.06497083,-0.45000002,-2.04375,-34.912502
1763129363075,-1.1102697,7.2502527,6.3696938,0.011606431,-0.22479823,-0.031306818,0.41103888,0.027821684,-0.06497083,-0.45000002,-2.04375,-34.912502
1763129363077,-1.1102697,7.2502527,6.3696938,0.011606431,-0.22479823,-0.031306818,0.41097397,0.02581804,-0.06623764,-0.45000002,-2.04375,-34.912502
1763129363077,-1.1102697,7.2502527,6.3696938,0.011606431,-0.22479823,-0.031306818,0.41097397,0.02581804,-0.06623764,-2.4750001,-2.8500001,-36.05625
1763129363093,-1.1102697,7.2502527,6.3696938,-0.033139415,-0.25732678,-0.003970621,0.41097397,0.02581804,-0.06623764,-2.4750001,-2.8500001,-36.05625
1763129363094,-0.9870393,7.2873416,6.4157557,-0.033139415,-0.25732678,-0.003970621,0.41097397,0.02581804,-0.06623764,-2.4750001,-2.8500001,-36.05625
1763129363099,-0.9870393,7.2873416,6.4157557,-0.033139415,-0.25732678,-0.003970621,0.410501,0.023306191,-0.067690924,-2.4750001,-2.8500001,-36.05625
1763129363099,-0.9870393,7.2873416,6.4157557,-0.033139415,-0.25732678,-0.003970621,0.410501,0.023306191,-0.067690924,-0.8625,-2.625,-35.49375
1763129363114,-0.9870393,7.2873416,6.4157557,-0.046273008,-0.26526803,-0.037873615,0.410501,0.023306191,-0.067690924,-0.8625,-2.625,-35.49375
1763129363114,-0.83748794,7.198807,6.3439713,-0.046273008,-0.26526803,-0.037873615,0.410501,0.023306191,-0.067690924,-0.8625,-2.625,-35.49375
1763129363118,-0.83748794,7.198807,6.3439713,-0.046273008,-0.26526803,-0.037873615,0.40987414,0.021038765,-0.06906971,-0.8625,-2.625,-35.49375
1763129363119,-0.83748794,7.198807,6.3439713,-0.046273008,-0.26526803,-0.037873615,0.40987414,0.021038765,-0.06906971,-5.925,-4.7250004,-32.193752
1763129363135,-0.83748794,7.198807,6.3439713,-0.07238748,-0.3037525,-0.07925971,0.40987414,0.021038765,-0.06906971,-5.925,-4.7250004,-32.193752
1763129363136,-0.762114,7.1820574,6.262615,-0.07238748,-0.3037525,-0.07925971,0.40987414,0.021038765,-0.06906971,-5.925,-4.7250004,-32.193752
1763129363139,-0.762114,7.1820574,6.262615,-0.07238748,-0.3037525,-0.07925971,0.40987414,0.021038765,-0.06906971,-0.975,-2.5125,-37.21875
1763129363140,-0.762114,7.1820574,6.262615,-0.07238748,-0.3037525,-0.07925971,0.40896195,0.018527828,-0.07109574,-0.975,-2.5125,-37.21875
1763129363158,-0.762114,7.1820574,6.262615,-0.11178826,-0.33597562,-0.1075122,0.40896195,0.018527828,-0.07109574,-0.975,-2.5125,-37.21875
1763129363159,-0.7196414,7.160522,6.48096,-0.11178826,-0.33597562,-0.1075122,0.40896195,0.018527828,-0.07109574,-0.975,-2.5125,-37.21875
1763129363161,-0.7196414,7.160522,6.48096,-0.11178826,-0.33597562,-0.1075122,0.40765688,0.015854945,-0.07350485,-0.975,-2.5125,-37.21875
1763129363162,-0.7196414,7.160522,6.48096,-0.11178826,-0.33597562,-0.1075122,0.40765688,0.015854945,-0.07350485,0.28125,-0.91875005,-36.956253
1763129363178,-0.7573284,7.1078796,6.727421,-0.11178826,-0.33597562,-0.1075122,0.40765688,0.015854945,-0.07350485,0.28125,-0.91875005,-36.956253
1763129363179,-0.7573284,7.1078796,6.727421,-0.11178826,-0.33597562,-0.1075122,0.40652916,0.013370122,-0.07608874,0.28125,-0.91875005,-36.956253
1763129363180,-0.7573284,7.1078796,6.727421,-0.08933897,-0.3245219,-0.1310305,0.40652916,0.013370122,-0.07608874,0.28125,-0.91875005,-36.956253
1763129363181,-0.7573284,7.1078796,6.727421,-0.08933897,-0.3245219,-0.1310305,0.40652916,0.013370122,-0.07608874,-1.2,-2.86875,-35.98125
1763129363198,-0.7573284,7.1078796,6.727421,-0.08933897,-0.3245219,-0.1310305,0.40574896,0.011000214,-0.079050936,-1.2,-2.86875,-35.98125
1763129363199,-0.7573284,7.1078796,6.727421,-0.046731155,-0.3254382,-0.1669188,0.40574896,0.011000214,-0.079050936,-1.2,-2.86875,-35.98125
1763129363200,-0.87936234,7.0809603,6.4354963,-0.046731155,-0.3254382,-0.1669188,0.40574896,0.011000214,-0.079050936,-1.2,-2.86875,-35.98125
1763129363201,-0.87936234,7.0809603,6.4354963,-0.046731155,-0.3254382,-0.1669188,0.40574896,0.011000214,-0.079050936,-2.8500001,-4.5375004,-35.41875
1763129363217,-0.87936234,7.0809603,6.4354963,-0.046731155,-0.3254382,-0.1669188,0.40574896,0.011000214,-0.079050936,-3.6000001,-3.9,-35.04375
1763129363219,-0.87936234,7.0809603,6.4354963,-0.12476913,-0.4411971,-0.15592323,0.40574896,0.011000214,-0.079050936,-3.6000001,-3.9,-35.04375
1763129363220,-0.9876375,7.036693,5.9234324,-0.12476913,-0.4411971,-0.15592323,0.40574896,0.011000214,-0.079050936,-3.6000001,-3.9,-35.04375
1763129363220,-0.9876375,7.036693,5.9234324,-0.12476913,-0.4411971,-0.15592323,0.40417737,0.0075652157,-0.08244034,-3.6000001,-3.9,-35.04375
1763129363237,-0.9876375,7.036693,5.9234324,-0.12476913,-0.4411971,-0.15592323,0.40417737,0.0075652157,-0.08244034,-1.5,-3.2625,-37.331253
1763129363240,-0.9876375,7.036693,5.9234324,-0.40958482,-0.4405862,-0.058490302,0.40417737,0.0075652157,-0.08244034,-1.5,-3.2625,-37.331253
1763129363242,-0.9876375,7.036693,5.9234324,-0.40958482,-0.4405862,-0.058490302,0.3999815,0.003997185,-0.08491151,-1.5,-3.2625,-37.331253
1763129363242,-1.0085747,6.8979096,6.04427,-0.40958482,-0.4405862,-0.058490302,0.3999815,0.003997185,-0.08491151,-1.5,-3.2625,-37.331253
1763129363258,-1.0085747,6.8979096,6.04427,-0.40958482,-0.4405862,-0.058490302,0.3999815,0.003997185,-0.08491151,-1.5,-1.0125,-35.5125
1763129363261,-1.0085747,6.8979096,6.04427,-0.6200278,-0.42287114,0.08307761,0.3999815,0.003997185,-0.08491151,-1.5,-1.0125,-35.5125
1763129363262,-1.0085747,6.8979096,6.04427,-0.6200278,-0.42287114,0.08307761,0.39375812,2.0394319E-4,-0.08597354,-1.5,-1.0125,-35.5125
1763129363264,-0.87218386,6.6532435,6.762117,-0.6200278,-0.42287114,0.08307761,0.39375812,2.0394319E-4,-0.08597354,-1.5,-1.0125,-35.5125
1763129363278,-0.87218386,6.6532435,6.762117,-0.6200278,-0.42287114,0.08307761,0.39375812,2.0394319E-4,-0.08597354,-4.1062503,-4.0125003,-34.40625
1763129363281,-0.87218386,6.6532435,6.762117,-0.6200278,-0.42287114,0.08307761,0.38711244,-0.002890469,-0.08582216,-4.1062503,-4.0125003,-34.40625
1763129363283,-0.87218386,6.6532435,6.762117,-0.6574432,-0.3178024,0.16340633,0.38711244,-0.002890469,-0.08582216,-4.1062503,-4.0125003,-34.40625
1763129363284,-0.75912297,6.533602,7.457232,-0.6574432,-0.3178024,0.16340633,0.38711244,-0.002890469,-0.08582216,-4.1062503,-4.0125003,-34.40625
1763129363299,-0.75912297,6.533602,7.457232,-0.6574432,-0.3178024,0.16340633,0.38711244,-0.002890469,-0.08582216,-4.05,-0.95625,-36.73125
1763129363303,-0.695115,6.634699,7.7276206,-0.6574432,-0.3178024,0.16340633,0.38711244,-0.002890469,-0.08582216,-4.05,-0.95625,-36.73125
1763129363304,-0.695115,6.634699,7.7276206,-0.6574432,-0.3178024,0.16340633,0.38196906,-0.005282497,-0.08508068,-4.05,-0.95625,-36.73125
1763129363306,-0.695115,6.634699,7.7276206,-0.49663305,-0.22082762,0.18249585,0.38196906,-0.005282497,-0.08508068,-4.05,-0.95625,-36.73125
1763129363317,-0.695115,6.634699,7.7276206,-0.49663305,-0.22082762,0.18249585,0.38196906,-0.005282497,-0.08508068,-6.0937505,-3.5062501,-34.987503
1763129363323,-0.695115,6.634699,7.7276206,-0.2933678,-0.20601414,0.17119485,0.38196906,-0.005282497,-0.08508068,-6.0937505,-3.5062501,-34.987503
1763129363324,-0.695115,6.634699,7.7276206,-0.2933678,-0.20601414,0.17119485,0.3787796,-0.0076693343,-0.0843678,-6.0937505,-3.5062501,-34.987503
1763129363325,-0.69272214,6.6538415,7.509874,-0.2933678,-0.20601414,0.17119485,0.3787796,-0.0076693343,-0.0843678,-6.0937505,-3.5062501,-34.987503
1763129363337,-0.69272214,6.6538415,7.509874,-0.2933678,-0.20601414,0.17119485,0.3787796,-0.0076693343,-0.0843678,-6.6937504,-3.6562502,-35.41875
1763129363345,-0.69272214,6.6538415,7.509874,-0.1594357,-0.23167047,0.16707152,0.3787796,-0.0076693343,-0.0843678,-6.6937504,-3.6562502,-35.41875
1763129363345,-0.69272214,6.6538415,7.509874,-0.1594357,-0.23167047,0.16707152,0.3769067,-0.0103969285,-0.08379513,-6.6937504,-3.6562502,-35.41875
1763129363347,-0.5820541,6.728617,7.259824,-0.1594357,-0.23167047,0.16707152,0.3769067,-0.0103969285,-0.08379513,-6.6937504,-3.6562502,-35.41875
1763129363358,-0.5820541,6.728617,7.259824,-0.1594357,-0.23167047,0.16707152,0.3769067,-0.0103969285,-0.08379513,-4.5375004,-1.3687501,-34.18125
1763129363365,-0.5820541,6.728617,7.259824,-0.14263692,-0.21624613,0.14798199,0.3769067,-0.0103969285,-0.08379513,-4.5375004,-1.3687501,-34.18125
1763129363366,-0.33379877,6.7698936,7.0576305,-0.14263692,-0.21624613,0.14798199,0.3769067,-0.0103969285,-0.08379513,-4.5375004,-1.3687501,-34.18125
1763129363379,-0.33379877,6.7698936,7.0576305,-0.14263692,-0.21624613,0.14798199,0.37526965,-0.012922111,-0.08331175,-4.5375004,-1.3687501,-34.18125
1763129363380,-0.33379877,6.7698936,7.0576305,-0.14263692,-0.21624613,0.14798199,0.37526965,-0.012922111,-0.08331175,-3.61875,-1.3312501,-35.5875
1763129363387,-0.33379877,6.7698936,7.0576305,-0.20051636,-0.15760311,0.09697478,0.37526965,-0.012922111,-0.08331175,-3.61875,-1.3312501,-35.5875
1763129363388,-0.18065812,6.771688,6.849455,-0.20051636,-0.15760311,0.09697478,0.37526965,-0.012922111,-0.08331175,-3.61875,-1.3312501,-35.5875
1763129363397,-0.18065812,6.771688,6.849455,-0.20051636,-0.15760311,0.09697478,0.37317416,-0.0146564795,-0.083018,-3.61875,-1.3312501,-35.5875
1763129363398,-0.18065812,6.771688,6.849455,-0.20051636,-0.15760311,0.09697478,0.37317416,-0.0146564795,-0.083018,-6.3187504,-4.36875,-35.5875
1763129363408,-0.18065812,6.771688,6.849455,-0.26725334,-0.17562363,0.040317077,0.37317416,-0.0146564795,-0.083018,-6.3187504,-4.36875,-35.5875
1763129363409,-0.24705894,6.678966,6.7968125,-0.26725334,-0.17562363,0.040317077,0.37317416,-0.0146564795,-0.083018,-6.3187504,-4.36875,-35.5875
1763129363417,-0.24705894,6.678966,6.7968125,-0.26725334,-0.17562363,0.040317077,0.37046766,-0.016302977,-0.08330397,-6.3187504,-4.36875,-35.5875
1763129363418,-0.24705894,6.678966,6.7968125,-0.26725334,-0.17562363,0.040317077,0.37046766,-0.016302977,-0.08330397,-5.68125,-1.9875001,-36.16875
1763129363429,-0.24705894,6.678966,6.7968125,-0.2715294,-0.23716825,0.010690134,0.37046766,-0.016302977,-0.08330397,-5.68125,-1.9875001,-36.16875
1763129363430,-0.22671995,6.6568327,6.969694,-0.2715294,-0.23716825,0.010690134,0.37046766,-0.016302977,-0.08330397,-5.68125,-1.9875001,-36.16875
1763129363441,-0.22671995,6.6568327,6.969694,-0.2715294,-0.23716825,0.010690134,0.36767218,-0.018413508,-0.084150344,-5.68125,-1.9875001,-36.16875
1763129363442,-0.22671995,6.6568327,6.969694,-0.2715294,-0.23716825,0.010690134,0.36767218,-0.018413508,-0.084150344,-6.0375004,-3.0187502,-34.65
1763129363449,-0.22671995,6.6568327,6.969694,-0.25137085,-0.25213444,-0.019547673,0.36767218,-0.018413508,-0.084150344,-6.0375004,-3.0187502,-34.65
1763129363450,-0.13100705,6.6071815,7.3728848,-0.25137085,-0.25213444,-0.019547673,0.36767218,-0.018413508,-0.084150344,-6.0375004,-3.0187502,-34.65
1763129363458,-0.13100705,6.6071815,7.3728848,-0.25137085,-0.25213444,-0.019547673,0.3650414,-0.0205678,-0.08535212,-6.0375004,-3.0187502,-34.65
1763129363459,-0.13100705,6.6071815,7.3728848,-0.25137085,-0.25213444,-0.019547673,0.3650414,-0.0205678,-0.08535212,-7.33125,-3.7875001,-34.518753
1763129363471,-0.13100705,6.6071815,7.3728848,-0.22250749,-0.15118903,-0.021532983,0.3650414,-0.0205678,-0.08535212,-7.33125,-3.7875001,-34.518753
1763129363472,-0.093918286,6.4923263,7.658229,-0.22250749,-0.15118903,-0.021532983,0.3650414,-0.0205678,-0.08535212,-7.33125,-3.7875001,-34.518753
1763129363477,-0.093918286,6.4923263,7.658229,-0.22250749,-0.15118903,-0.021532983,0.362713,-0.02176923,-0.08616632,-7.33125,-3.7875001,-34.518753
1763129363478,-0.093918286,6.4923263,7.658229,-0.22250749,-0.15118903,-0.021532983,0.362713,-0.02176923,-0.08616632,-5.3250003,-1.8937501,-35.34375
1763129363492,-0.093918286,6.4923263,7.658229,-0.16875139,-0.045203995,-0.016493348,0.362713,-0.02176923,-0.08616632,-5.3250003,-1.8937501,-35.34375
1763129363492,-0.12323037,6.4797635,7.7240314,-0.16875139,-0.045203995,-0.016493348,0.362713,-0.02176923,-0.08616632,-5.3250003,-1.8937501,-35.34375
1763129363499,-0.12323037,6.4797635,7.7240314,-0.16875139,-0.045203995,-0.016493348,0.36094195,-0.022010576,-0.08651539,-5.3250003,-1.8937501,-35.34375
1763129363500,-0.12323037,6.4797635,7.7240314,-0.16875139,-0.045203995,-0.016493348,0.36094195,-0.022010576,-0.08651539,-5.7562504,-1.66875,-34.7625
1763129363513,-0.12323037,6.4797635,7.7240314,-0.07345649,-0.050090913,-0.028710645,0.36094195,-0.022010576,-0.08651539,-5.7562504,-1.66875,-34.7625
1763129363514,-0.2757728,6.4905314,7.556534,-0.07345649,-0.050090913,-0.028710645,0.36094195,-0.022010576,-0.08651539,-5.7562504,-1.66875,-34.7625
1763129363518,-0.2757728,6.4905314,7.556534,-0.07345649,-0.050090913,-0.028710645,0.36094195,-0.022010576,-0.08651539,-6.3375,-1.9687501,-35.775
1763129363519,-0.2757728,6.4905314,7.556534,-0.07345649,-0.050090913,-0.028710645,0.3600887,-0.022335052,-0.08699274,-6.3375,-1.9687501,-35.775
1763129363534,-0.2757728,6.4905314,7.556534,0.002290743,-0.07819069,-0.033597562,0.3600887,-0.022335052,-0.08699274,-6.3375,-1.9687501,-35.775
1763129363535,-0.38644084,6.404988,7.478169,0.002290743,-0.07819069,-0.033597562,0.3600887,-0.022335052,-0.08699274,-6.3375,-1.9687501,-35.775
1763129363540,-0.38644084,6.404988,7.478169,0.002290743,-0.07819069,-0.033597562,0.35998073,-0.022960879,-0.08765413,-6.3375,-1.9687501,-35.775
1763129363541,-0.38644084,6.404988,7.478169,0.002290743,-0.07819069,-0.033597562,0.35998073,-0.022960879,-0.08765413,-5.0437503,-0.54375005,-35.006252
1763129363558,-0.38644084,6.404988,7.478169,0.019394957,-0.05589413,-0.016951498,0.35998073,-0.022960879,-0.08765413,-5.0437503,-0.54375005,-35.006252
1763129363559,-0.37507495,6.3475604,7.470392,0.019394957,-0.05589413,-0.016951498,0.35998073,-0.022960879,-0.08765413,-5.0437503,-0.54375005,-35.006252
1763129363560,-0.37507495,6.3475604,7.470392,0.019394957,-0.05589413,-0.016951498,0.36005443,-0.023431094,-0.088106304,-5.0437503,-0.54375005,-35.006252
1763129363563,-0.37507495,6.3475604,7.470392,0.019394957,-0.05589413,-0.016951498,0.36005443,-0.023431094,-0.088106304,-5.1000004,-0.22500001,-34.800003
1763129363576,-0.37507495,6.3475604,7.470392,0.0067195124,-0.010231985,-0.00320704,0.36005443,-0.023431094,-0.088106304,-5.1000004,-0.22500001,-34.800003
1763129363577,-0.212363,6.428318,7.3525457,0.0067195124,-0.010231985,-0.00320704,0.36005443,-0.023431094,-0.088106304,-5.1000004,-0.22500001,-34.800003
1763129363579,-0.212363,6.428318,7.3525457,0.0067195124,-0.010231985,-0.00320704,0.36003396,-0.023497397,-0.08825413,-5.1000004,-0.22500001,-34.800003
1763129363580,-0.212363,6.428318,7.3525457,0.0067195124,-0.010231985,-0.00320704,0.36003396,-0.023497397,-0.08825413,-6.76875,-1.7437501,-34.893753
1763129363598,-0.212363,6.428318,7.3525457,-0.036346454,-0.010690134,-0.024740024,0.36003396,-0.023497397,-0.08825413,-6.76875,-1.7437501,-34.893753
1763129363599,-0.212363,6.428318,7.3525457,-0.036346454,-0.010690134,-0.024740024,0.35963243,-0.023471836,-0.08856029,-6.76875,-1.7437501,-34.893753
1763129363601,-0.212363,6.428318,7.3525457,-0.036346454,-0.010690134,-0.024740024,0.35963243,-0.023471836,-0.08856029,-4.5375004,0.22500001,-34.912502
1763129363603,-0.15314065,6.546763,7.1659055,-0.036346454,-0.010690134,-0.024740024,0.35963243,-0.023471836,-0.08856029,-4.5375004,0.22500001,-34.912502
1763129363619,-0.15314065,6.546763,7.1659055,-0.05650499,-0.053908817,-0.06352994,0.35963243,-0.023471836,-0.08856029,-4.5375004,0.22500001,-34.912502
1763129363620,-0.15314065,6.546763,7.1659055,-0.05650499,-0.053908817,-0.06352994,0.35905603,-0.023711698,-0.08938083,-4.5375004,0.22500001,-34.912502
1763129363621,-0.15314065,6.546763,7.1659055,-0.05650499,-0.053908817,-0.06352994,0.35905603,-0.023711698,-0.08938083,-3.825,-0.09375,-35.68125
1763129363622,-0.22492532,6.5694947,7.277172,-0.05650499,-0.053908817,-0.06352994,0.35905603,-0.023711698,-0.08938083,-3.825,-0.09375,-35.68125
1763129363637,-0.22492532,6.5694947,7.277172,-0.05650499,-0.053908817,-0.06352994,0.35905603,-0.023711698,-0.08938083,-6.6375003,-2.5125,-34.65
1763129363638,-0.22492532,6.5694947,7.277172,-0.05650499,-0.053908817,-0.06352994,0.3588613,-0.024337221,-0.09060979,-6.6375003,-2.5125,-34.65
1763129363640,-0.22492532,6.5694947,7.277172,-0.012370012,-0.09911281,-0.08628465,0.3588613,-0.024337221,-0.09060979,-6.6375003,-2.5125,-34.65
1763129363642,-0.19322042,6.506683,7.3495545,-0.012370012,-0.09911281,-0.08628465,0.3588613,-0.024337221,-0.09060979,-6.6375003,-2.5125,-34.65
1763129363658,-0.19322042,6.506683,7.3495545,-0.012370012,-0.09911281,-0.08628465,0.3588613,-0.024337221,-0.09060979,-5.775,0.09375,-36.15
1763129363660,-0.19322042,6.506683,7.3495545,0.043065965,-0.10644319,-0.091477,0.3588613,-0.024337221,-0.09060979,-5.775,0.09375,-36.15
1763129363661,-0.19322042,6.506683,7.3495545,0.043065965,-0.10644319,-0.091477,0.35917532,-0.025071323,-0.0918985,-5.775,0.09375,-36.15
1763129363662,-0.09272188,6.4331036,7.420741,0.043065965,-0.10644319,-0.091477,0.35917532,-0.025071323,-0.0918985,-5.775,0.09375,-36.15
1763129363678,-0.09272188,6.4331036,7.420741,0.043065965,-0.10644319,-0.091477,0.35917532,-0.025071323,-0.0918985,-6.5062504,-0.88125,-35.34375
1763129363681,-0.09272188,6.4331036,7.420741,0.0632245,-0.080176,-0.086742796,0.35917532,-0.025071323,-0.0918985,-6.5062504,-0.88125,-35.34375
1763129363682,-0.060418773,6.4558353,7.2580295,0.0632245,-0.080176,-0.086742796,0.35917532,-0.025071323,-0.0918985,-6.5062504,-0.88125,-35.34375
1763129363684,-0.060418773,6.4558353,7.2580295,0.0632245,-0.080176,-0.086742796,0.35967898,-0.02559918,-0.09301009,-6.5062504,-0.88125,-35.34375
1763129363699,-0.060418773,6.4558353,7.2580295,0.0632245,-0.080176,-0.086742796,0.35967898,-0.02559918,-0.09301009,-5.30625,-0.43125,-34.96875
1763129363703,-0.025124637,6.559923,7.1132636,0.0632245,-0.080176,-0.086742796,0.35967898,-0.02559918,-0.09301009,-5.30625,-0.43125,-34.96875
1763129363704,-0.025124637,6.559923,7.1132636,0.0632245,-0.080176,-0.086742796,0.36025485,-0.026321081,-0.094401546,-5.30625,-0.43125,-34.96875
1763129363705,-0.025124637,6.559923,7.1132636,0.06994402,-0.10674862,-0.107054055,0.36025485,-0.026321081,-0.094401546,-5.30625,-0.43125,-34.96875
1763129363718,-0.025124637,6.559923,7.1132636,0.06994402,-0.10674862,-0.107054055,0.36025485,-0.026321081,-0.094401546,-5.68125,-2.2687502,-32.925003
1763129363723,-0.025124637,6.559923,7.1132636,0.051159926,-0.10399973,-0.1423315,0.36025485,-0.026321081,-0.094401546,-5.68125,-2.2687502,-32.925003
1763129363724,-0.025124637,6.559923,7.1132636,0.051159926,-0.10399973,-0.1423315,0.3606981,-0.02687113,-0.096107654,-5.68125,-2.2687502,-32.925003
1763129363726,-0.08015956,6.492924,7.1018977,0.051159926,-0.10399973,-0.1423315,0.3606981,-0.02687113,-0.096107654,-5.68125,-2.2687502,-32.925003
1763129363738,-0.08015956,6.492924,7.1018977,0.051159926,-0.10399973,-0.1423315,0.3606981,-0.02687113,-0.096107654,-5.5125003,-0.95625,-33.675003
1763129363744,-0.08015956,6.492924,7.1018977,0.010690134,-0.105526894,-0.14278965,0.3606981,-0.02687113,-0.096107654,-5.5125003,-0.95625,-33.675003
1763129363745,-0.33140594,6.390631,7.0606213,0.010690134,-0.105526894,-0.14278965,0.3606981,-0.02687113,-0.096107654,-5.5125003,-0.95625,-33.675003
1763129363758,-0.33140594,6.390631,7.0606213,0.010690134,-0.105526894,-0.14278965,0.3606981,-0.02687113,-0.096107654,-6.4500003,-1.48125,-33.206253
1763129363765,-0.33140594,6.390631,7.0606213,-0.01847866,-0.15347977,-0.08628465,0.3606981,-0.02687113,-0.096107654,-6.4500003,-1.48125,-33.206253
1763129363766,-0.33140594,6.390631,7.0606213,-0.01847866,-0.15347977,-0.08628465,0.36071798,-0.02764803,-0.0980855,-6.4500003,-1.48125,-33.206253
1763129363767,-0.3481557,6.3714886,7.090532,-0.01847866,-0.15347977,-0.08628465,0.36071798,-0.02764803,-0.0980855,-6.4500003,-1.48125,-33.206253
1763129363768,-0.3481557,6.3714886,7.090532,-0.01847866,-0.15347977,-0.08628465,0.3603438,-0.028845096,-0.10039901,-6.4500003,-1.48125,-33.206253
1763129363778,-0.3481557,6.3714886,7.090532,-0.01847866,-0.15347977,-0.08628465,0.3603438,-0.028845096,-0.10039901,-6.3750005,-1.8000001,-34.612503
1763129363786,-0.3481557,6.3714886,7.090532,-0.042455103,-0.18692462,-0.045051277,0.3603438,-0.028845096,-0.10039901,-6.3750005,-1.8000001,-34.612503
1763129363787,-0.21834506,6.4002023,7.1545396,-0.042455103,-0.18692462,-0.045051277,0.3603438,-0.028845096,-0.10039901,-6.3750005,-1.8000001,-34.612503
1763129363798,-0.21834506,6.4002023,7.1545396,-0.042455103,-0.18692462,-0.045051277,0.35963425,-0.030660503,-0.10303455,-6.3750005,-1.8000001,-34.612503
1763129363799,-0.21834506,6.4002023,7.1545396,-0.042455103,-0.18692462,-0.045051277,0.35963425,-0.030660503,-0.10303455,-5.7562504,-1.66875,-34.7625
1763129363807,-0.21834506,6.4002023,7.1545396,-0.08735366,-0.18417573,-0.056046844,0.35963425,-0.030660503,-0.10303455,-5.7562504,-1.66875,-34.7625
1763129363808,-0.02213361,6.4905314,7.213164,-0.08735366,-0.18417573,-0.056046844,0.35963425,-0.030660503,-0.10303455,-5.7562504,-1.66875,-34.7625
1763129363818,-0.02213361,6.4905314,7.213164,-0.08735366,-0.18417573,-0.056046844,0.3584945,-0.032217886,-0.104863964,-5.7562504,-1.66875,-34.7625
1763129363819,-0.02213361,6.4905314,7.213164,-0.08735366,-0.18417573,-0.056046844,0.3584945,-0.032217886,-0.104863964,-6.20625,-2.0812502,-34.03125
1763129363828,-0.02213361,6.4905314,7.213164,-0.12812889,-0.14584397,-0.07925971,0.3584945,-0.032217886,-0.104863964,-6.20625,-2.0812502,-34.03125
1763129363829,-0.04007978,6.4480586,7.339385,-0.12812889,-0.14584397,-0.07925971,0.3584945,-0.032217886,-0.104863964,-6.20625,-2.0812502,-34.03125
1763129363837,-0.04007978,6.4480586,7.339385,-0.12812889,-0.14584397,-0.07925971,0.35707068,-0.033482064,-0.106412984,-6.20625,-2.0812502,-34.03125
1763129363838,-0.04007978,6.4480586,7.339385,-0.12812889,-0.14584397,-0.07925971,0.35707068,-0.033482064,-0.106412984,-6.4500003,-1.48125,-33.206253
1763129363848,-0.04007978,6.4480586,7.339385,-0.10598504,-0.10644319,-0.06093376,0.35707068,-0.033482064,-0.106412984,-6.4500003,-1.48125,-33.206253
1763129363850,-0.12622139,6.3541408,7.4859457,-0.10598504,-0.10644319,-0.06093376,0.35707068,-0.033482064,-0.106412984,-6.4500003,-1.48125,-33.206253
1763129363858,-0.12622139,6.3541408,7.4859457,-0.10598504,-0.10644319,-0.06093376,0.35707068,-0.033482064,-0.106412984,-5.9437504,-0.58125,-34.050003
1763129363859,-0.12622139,6.3541408,7.4859457,-0.10598504,-0.10644319,-0.06093376,0.3557603,-0.03432966,-0.10748841,-5.9437504,-0.58125,-34.050003
1763129363870,-0.12622139,6.3541408,7.4859457,-0.032833982,-0.064904384,-0.041080657,0.3557603,-0.03432966,-0.10748841,-5.9437504,-0.58125,-34.050003
1763129363871,-0.08733802,6.330212,7.408179,-0.032833982,-0.064904384,-0.041080657,0.3557603,-0.03432966,-0.10748841,-5.9437504,-0.58125,-34.050003
1763129363878,-0.08733802,6.330212,7.408179,-0.032833982,-0.064904384,-0.041080657,0.35495776,-0.034830928,-0.10846382,-5.9437504,-0.58125,-34.050003
1763129363879,-0.08733802,6.330212,7.408179,-0.032833982,-0.064904384,-0.041080657,0.35495776,-0.034830928,-0.10846382,-6.0937505,-0.45000002,-33.525
1763129363891,-0.08733802,6.330212,7.408179,-0.007941242,0.0024434591,-0.035430156,0.35495776,-0.034830928,-0.10846382,-6.0937505,-0.45000002,-33.525
1763129363892,-0.19501504,6.186643,7.2041907,-0.007941242,0.0024434591,-0.035430156,0.35495776,-0.034830928,-0.10846382,-6.0937505,-0.45000002,-33.525
1763129363899,-0.19501504,6.186643,7.2041907,-0.007941242,0.0024434591,-0.035430156,0.35452738,-0.034882464,-0.10930382,-6.0937505,-0.45000002,-33.525
1763129363900,-0.19501504,6.186643,7.2041907,-0.007941242,0.0024434591,-0.035430156,0.35452738,-0.034882464,-0.10930382,-6.4875,-0.88125,-36.5625
1763129363912,-0.19501504,6.186643,7.2041907,-0.028710645,0.034666575,0.009468404,0.35452738,-0.034882464,-0.10930382,-6.4875,-0.88125,-36.5625
1763129363913,-0.3361916,6.1531434,7.138388,-0.028710645,0.034666575,0.009468404,0.35452738,-0.034882464,-0.10930382,-6.4875,-0.88125,-36.5625
1763129363917,-0.3361916,6.1531434,7.138388,-0.028710645,0.034666575,0.009468404,0.35401022,-0.034501895,-0.10940822,-6.4875,-0.88125,-36.5625
1763129363918,-0.3361916,6.1531434,7.138388,-0.028710645,0.034666575,0.009468404,0.35401022,-0.034501895,-0.10940822,-7.0125003,-1.6500001,-35.90625
1763129363933,-0.3361916,6.1531434,7.138388,-0.030695954,0.06108648,0.08277218,0.35401022,-0.034501895,-0.10940822,-7.0125003,-1.6500001,-35.90625
1763129363934,-0.2219343,6.213562,7.42433,-0.030695954,0.06108648,0.08277218,0.35401022,-0.034501895,-0.10940822,-7.0125003,-1.6500001,-35.90625
1763129363938,-0.2219343,6.213562,7.42433,-0.030695954,0.06108648,0.08277218,0.35354766,-0.033950385,-0.10888186,-7.0125003,-1.6500001,-35.90625
1763129363940,-0.2219343,6.213562,7.42433,-0.030695954,0.06108648,0.08277218,0.35354766,-0.033950385,-0.10888186,-6.6000004,-0.26250002,-36.15
1763129363953,-0.2219343,6.213562,7.42433,-0.012522728,0.1395826,0.11056653,0.35354766,-0.033950385,-0.10888186,-6.6000004,-0.26250002,-36.15
1763129363954,-0.046660043,6.3565335,7.5296144,-0.012522728,0.1395826,0.11056653,0.35354766,-0.033950385,-0.10888186,-6.6000004,-0.26250002,-36.15
1763129363960,-0.046660043,6.3565335,7.5296144,-0.012522728,0.1395826,0.11056653,0.35308352,-0.03307416,-0.10806281,-6.6000004,-0.26250002,-36.15
1763129363961,-0.046660043,6.3565335,7.5296144,-0.012522728,0.1395826,0.11056653,0.35308352,-0.03307416,-0.10806281,-7.0687504,-2.9437501,-35.41875
1763129363974,-0.046660043,6.3565335,7.5296144,-0.0027488915,0.16569707,0.09789108,0.35308352,-0.03307416,-0.10806281,-7.0687504,-2.9437501,-35.41875
1763129363975,-0.16450655,6.4977098,7.4739814,-0.0027488915,0.16569707,0.09789108,0.35308352,-0.03307416,-0.10806281,-7.0687504,-2.9437501,-35.41875
1763129363979,-0.16450655,6.4977098,7.4739814,-0.0027488915,0.16569707,0.09789108,0.35280997,-0.03200141,-0.106562704,-7.0687504,-2.9437501,-35.41875
1763129363980,-0.16450655,6.4977098,7.4739814,-0.0027488915,0.16569707,0.09789108,0.35280997,-0.03200141,-0.106562704,-5.8125,-1.35,-33.80625
1763129363995,-0.16450655,6.4977098,7.4739814,-0.013286309,0.14004076,0.09346231,0.35280997,-0.03200141,-0.106562704,-5.8125,-1.35,-33.80625
1763129363996,-0.25543383,6.5276203,7.304091,-0.013286309,0.14004076,0.09346231,0.35280997,-0.03200141,-0.106562704,-5.8125,-1.35,-33.80625
1763129363998,-0.25543383,6.5276203,7.304091,-0.013286309,0.14004076,0.09346231,0.3526614,-0.031099122,-0.10552631,-5.8125,-1.35,-33.80625
1763129364000,-0.25543383,6.5276203,7.304091,-0.013286309,0.14004076,0.09346231,0.3526614,-0.031099122,-0.10552631,-6.24375,-0.16875,-35.30625
1763129364018,-0.25543383,6.5276203,7.304091,-0.027030766,0.06582068,0.08078687,0.3526614,-0.031099122,-0.10552631,-6.24375,-0.16875,-35.30625
1763129364018,-0.25543383,6.5276203,7.304091,-0.027030766,0.06582068,0.08078687,0.35254946,-0.030694153,-0.10483494,-6.24375,-0.16875,-35.30625
1763129364019,-0.25543383,6.5276203,7.304091,-0.027030766,0.06582068,0.08078687,0.35254946,-0.030694153,-0.10483494,-5.5875,1.25625,-35.643753
1763129364020,-0.12562318,6.5868425,7.1688967,-0.027030766,0.06582068,0.08078687,0.35254946,-0.030694153,-0.10483494,-5.5875,1.25625,-35.643753
1763129364038,-0.12562318,6.5868425,7.1688967,-0.027030766,0.06582068,0.08078687,0.3521903,-0.03071245,-0.10448793,-5.5875,1.25625,-35.643753
1763129364038,-0.12562318,6.5868425,7.1688967,-0.0707076,0.020616686,0.04046979,0.3521903,-0.03071245,-0.10448793,-5.5875,1.25625,-35.643753
1763129364039,0.017347964,6.613762,7.3046894,-0.0707076,0.020616686,0.04046979,0.3521903,-0.03071245,-0.10448793,-5.5875,1.25625,-35.643753
1763129364041,0.017347964,6.613762,7.3046894,-0.0707076,0.020616686,0.04046979,0.3521903,-0.03071245,-0.10448793,-10.14375,-1.6875001,-31.218752
1763129364059,0.017347964,6.613762,7.3046894,-0.07925971,0.015424335,0.015882485,0.3521903,-0.03071245,-0.10448793,-10.14375,-1.6875001,-31.218752
1763129364059,0.017347964,6.613762,7.3046894,-0.07925971,0.015424335,0.015882485,0.35163882,-0.03078384,-0.104015835,-10.14375,-1.6875001,-31.218752
1763129364060,-0.034695927,6.521638,7.476374,-0.07925971,0.015424335,0.015882485,0.35163882,-0.03078384,-0.104015835,-10.14375,-1.6875001,-31.218752
1763129364061,-0.034695927,6.521638,7.476374,-0.07925971,0.015424335,0.015882485,0.35163882,-0.03078384,-0.104015835,-11.475,-3.0937502,-28.95
1763129364077,-0.034695927,6.521638,7.476374,-0.07925971,0.015424335,0.015882485,0.35163882,-0.03078384,-0.104015835,-12.88125,-5.5125003,-28.575
1763129364079,-0.034695927,6.521638,7.476374,-0.058490302,0.00962112,-0.010537418,0.35163882,-0.03078384,-0.104015835,-12.88125,-5.5125003,-28.575
1763129364079,-0.034695927,6.521638,7.476374,-0.058490302,0.00962112,-0.010537418,0.35102212,-0.030710163,-0.10383041,-12.88125,-5.5125003,-28.575
1763129364080,-0.12143575,6.452246,7.379465,-0.058490302,0.00962112,-0.010537418,0.35102212,-0.030710163,-0.10383041,-12.88125,-5.5125003,-28.575
1763129364097,-0.12143575,6.452246,7.379465,-0.058490302,0.00962112,-0.010537418,0.35102212,-0.030710163,-0.10383041,-13.181251,-4.3125,-29.906252
1763129364100,-0.12143575,6.452246,7.379465,-0.08155045,-0.036346454,-0.030390523,0.35102212,-0.030710163,-0.10383041,-13.181251,-4.3125,-29.906252
1763129364101,-0.12143575,6.452246,7.379465,-0.08155045,-0.036346454,-0.030390523,0.35019502,-0.03089557,-0.10421545,-13.181251,-4.3125,-29.906252
1763129364102,-0.08973085,6.495317,7.018747,-0.08155045,-0.036346454,-0.030390523,0.35019502,-0.03089557,-0.10421545,-13.181251,-4.3125,-29.906252
1763129364118,-0.08973085,6.495317,7.018747,-0.08155045,-0.036346454,-0.030390523,0.35019502,-0.03089557,-0.10421545,-9.6,1.03125,-29.343752
1763129364121,-0.08973085,6.495317,7.018747,-0.17623448,-0.13698642,-0.093615025,0.35019502,-0.03089557,-0.10421545,-9.6,1.03125,-29.343752
1763129364121,-0.08973085,6.495317,7.018747,-0.17623448,-0.13698642,-0.093615025,0.34884232,-0.031756345,-0.105440974,-9.6,1.03125,-29.343752
1763129364123,0.12622139,6.658627,6.9762745,-0.17623448,-0.13698642,-0.093615025,0.34884232,-0.031756345,-0.105440974,-9.6,1.03125,-29.343752
1763129364138,0.12622139,6.658627,6.9762745,-0.17623448,-0.13698642,-0.093615025,0.34884232,-0.031756345,-0.105440974,-10.05,-3.7500002,-31.5375
1763129364142,0.12622139,6.658627,6.9762745,-0.29917103,-0.13942988,-0.1631009,0.34884232,-0.031756345,-0.105440974,-10.05,-3.7500002,-31.5375
1763129364152,0.12622139,6.658627,6.9762745,-0.29917103,-0.13942988,-0.1631009,0.34660804,-0.032472547,-0.10681783,-10.05,-3.7500002,-31.5375
1763129364166,0.033499517,6.579066,7.172486,-0.29917103,-0.13942988,-0.1631009,0.34660804,-0.032472547,-0.10681783,-10.05,-3.7500002,-31.5375
1763129364167,0.033499517,6.579066,7.172486,-0.29917103,-0.13942988,-0.1631009,0.34660804,-0.032472547,-0.10681783,-10.743751,-3.5812502,-29.98125
1763129364168,0.033499517,6.579066,7.172486,-0.29917103,-0.13942988,-0.1631009,0.34354728,-0.033428922,-0.10959643,-10.743751,-3.5812502,-29.98125
1763129364169,0.033499517,6.579066,7.172486,-0.3573559,-0.21273366,-0.24831653,0.34354728,-0.033428922,-0.10959643,-10.743751,-3.5812502,-29.98125
1763129364169,-0.111864455,6.4528446,7.1916285,-0.3573559,-0.21273366,-0.24831653,0.34354728,-0.033428922,-0.10959643,-10.743751,-3.5812502,-29.98125
1763129364177,-0.111864455,6.4528446,7.1916285,-0.3573559,-0.21273366,-0.24831653,0.34354728,-0.033428922,-0.10959643,-10.481251,-1.125,-31.612501
1763129364185,-0.111864455,6.4528446,7.1916285,-0.39568767,-0.27214026,-0.3065014,0.34354728,-0.033428922,-0.10959643,-10.481251,-1.125,-31.612501
1763129364185,-0.111864455,6.4528446,7.1916285,-0.39568767,-0.27214026,-0.3065014,0.34001002,-0.03455728,-0.11352691,-10.481251,-1.125,-31.612501
1763129364186,-0.3481557,6.135197,7.2729845,-0.39568767,-0.27214026,-0.3065014,0.34001002,-0.03455728,-0.11352691,-10.481251,-1.125,-31.612501
1763129364198,-0.3481557,6.135197,7.2729845,-0.39568767,-0.27214026,-0.3065014,0.34001002,-0.03455728,-0.11352691,-13.012501,-6.8437505,-30.393751
1763129364205,-0.3481557,6.135197,7.2729845,-0.37858346,-0.29932374,-0.2490801,0.34001002,-0.03455728,-0.11352691,-13.012501,-6.8437505,-30.393751
1763129364206,-0.40977088,5.782854,7.679166,-0.37858346,-0.29932374,-0.2490801,0.34001002,-0.03455728,-0.11352691,-13.012501,-6.8437505,-30.393751
1763129364218,-0.40977088,5.782854,7.679166,-0.37858346,-0.29932374,-0.2490801,0.33623692,-0.03590604,-0.11764909,-13.012501,-6.8437505,-30.393751
1763129364219,-0.40977088,5.782854,7.679166,-0.37858346,-0.29932374,-0.2490801,0.33623692,-0.03590604,-0.11764909,-10.6875,-2.4375,-29.062502
1763129364226,-0.40977088,5.782854,7.679166,-0.33444846,-0.1951713,-0.15882485,0.33623692,-0.03590604,-0.11764909,-10.6875,-2.4375,-29.062502
1763129364227,-0.31226337,5.5513487,8.105687,-0.33444846,-0.1951713,-0.15882485,0.33623692,-0.03590604,-0.11764909,-10.6875,-2.4375,-29.062502
1763129364237,-0.31226337,5.5513487,8.105687,-0.33444846,-0.1951713,-0.15882485,0.33223495,-0.03651369,-0.120868996,-10.6875,-2.4375,-29.062502
1763129364238,-0.31226337,5.5513487,8.105687,-0.33444846,-0.1951713,-0.15882485,0.33223495,-0.03651369,-0.120868996,-13.668751,-4.5750003,-28.7625
1763129364249,-0.31226337,5.5513487,8.105687,-0.26496258,-0.028863361,-0.03573559,0.33223495,-0.03651369,-0.120868996,-13.668751,-4.5750003,-28.7625
1763129364250,-0.4103691,5.4664035,8.298309,-0.26496258,-0.028863361,-0.03573559,0.33223495,-0.03651369,-0.120868996,-13.668751,-4.5750003,-28.7625
1763129364257,-0.4103691,5.4664035,8.298309,-0.26496258,-0.028863361,-0.03573559,0.32843354,-0.036094956,-0.12222455,-13.668751,-4.5750003,-28.7625
1763129364258,-0.4103691,5.4664035,8.298309,-0.26496258,-0.028863361,-0.03573559,0.32843354,-0.036094956,-0.12222455,-6.6375003,-0.112500004,-34.987503
1763129364268,-0.4103691,5.4664035,8.298309,-0.14813471,0.10919208,0.07589995,0.32843354,-0.036094956,-0.12222455,-6.6375003,-0.112500004,-34.987503
1763129364269,-0.36550367,5.543572,8.132008,-0.14813471,0.10919208,0.07589995,0.32843354,-0.036094956,-0.12222455,-6.6375003,-0.112500004,-34.987503
1763129364278,-0.36550367,5.543572,8.132008,-0.14813471,0.10919208,0.07589995,0.32570925,-0.034759816,-0.122211866,-6.6375003,-0.112500004,-34.987503
1763129364279,-0.36550367,5.543572,8.132008,-0.14813471,0.10919208,0.07589995,0.32570925,-0.034759816,-0.122211866,-7.7625003,-1.1625,-34.275
1763129364291,-0.36550367,5.543572,8.132008,-0.027794348,0.11438443,0.10873393,0.32570925,-0.034759816,-0.122211866,-7.7625003,-1.1625,-34.275
1763129364292,-0.27098715,5.919843,7.8520474,-0.027794348,0.11438443,0.10873393,0.32570925,-0.034759816,-0.122211866,-7.7625003,-1.1625,-34.275
1763129364299,-0.27098715,5.919843,7.8520474,-0.027794348,0.11438443,0.10873393,0.3244795,-0.033708736,-0.12158792,-7.7625003,-1.1625,-34.275
1763129364300,-0.27098715,5.919843,7.8520474,-0.027794348,0.11438443,0.10873393,0.3244795,-0.033708736,-0.12158792,-7.0312505,0.61875004,-33.787502
1763129364310,-0.27098715,5.919843,7.8520474,0.04092794,0.05131264,0.05589413,0.3244795,-0.033708736,-0.12158792,-7.0312505,0.61875004,-33.787502
1763129364311,-0.18544376,6.0430737,7.564909,0.04092794,0.05131264,0.05589413,0.3244795,-0.033708736,-0.12158792,-7.0312505,0.61875004,-33.787502
1763129364317,-0.18544376,6.0430737,7.564909,0.04092794,0.05131264,0.05589413,0.32463464,-0.033316948,-0.121200345,-7.0312505,0.61875004,-33.787502
1763129364318,-0.18544376,6.0430737,7.564909,0.04092794,0.05131264,0.05589413,0.32463464,-0.033316948,-0.121200345,-6.0,1.3312501,-34.575
1763129364332,-0.18544376,6.0430737,7.564909,0.09560034,-0.009315688,0.011606431,0.32463464,-0.033316948,-0.121200345,-6.0,1.3312501,-34.575
1763129364333,-0.18185452,5.758926,7.263413,0.09560034,-0.009315688,0.011606431,0.32463464,-0.033316948,-0.121200345,-6.0,1.3312501,-34.575
1763129364338,-0.18185452,5.758926,7.263413,0.09560034,-0.009315688,0.011606431,0.32463464,-0.033316948,-0.121200345,-8.64375,-1.35,-32.98125
1763129364339,-0.18185452,5.758926,7.263413,0.09560034,-0.009315688,0.011606431,0.3256798,-0.033540457,-0.121117085,-8.64375,-1.35,-32.98125
1763129364352,-0.18185452,5.758926,7.263413,0.055130545,-0.049327333,0.057115857,0.3256798,-0.033540457,-0.121117085,-8.64375,-1.35,-32.98125
1763129364353,-0.32063824,5.8307104,7.140183,0.055130545,-0.049327333,0.057115857,0.3256798,-0.033540457,-0.121117085,-8.64375,-1.35,-32.98125
1763129364358,-0.32063824,5.8307104,7.140183,0.055130545,-0.049327333,0.057115857,0.32617968,-0.03424281,-0.12079951,-8.64375,-1.35,-32.98125
1763129364359,-0.32063824,5.8307104,7.140183,0.055130545,-0.049327333,0.057115857,0.32617968,-0.03424281,-0.12079951,-8.6625,-1.2,-33.9375
1763129364374,-0.32063824,5.8307104,7.140183,-0.006261364,-0.007788526,0.1262963,0.32617968,-0.03424281,-0.12079951,-8.6625,-1.2,-33.9375
1763129364375,0.084346995,6.099903,7.3585277,-0.006261364,-0.007788526,0.1262963,0.32617968,-0.03424281,-0.12079951,-8.6625,-1.2,-33.9375
1763129364380,0.084346995,6.099903,7.3585277,-0.006261364,-0.007788526,0.1262963,0.32634205,-0.034542505,-0.119957596,-8.6625,-1.2,-33.9375
1763129364380,0.084346995,6.099903,7.3585277,-0.006261364,-0.007788526,0.1262963,0.32634205,-0.034542505,-0.119957596,-9.28125,-1.2,-34.275
1763129364394,0.15134603,6.2051873,7.2418776,-0.006261364,-0.007788526,0.1262963,0.32634205,-0.034542505,-0.119957596,-9.28125,-1.2,-34.275
1763129364395,0.15134603,6.2051873,7.2418776,-0.028252495,-0.044898562,0.055435978,0.32634205,-0.034542505,-0.119957596,-9.28125,-1.2,-34.275
1763129364398,0.15134603,6.2051873,7.2418776,-0.028252495,-0.044898562,0.055435978,0.32633698,-0.03535807,-0.11901676,-9.28125,-1.2,-34.275
1763129364400,0.15134603,6.2051873,7.2418776,-0.028252495,-0.044898562,0.055435978,0.32633698,-0.03535807,-0.11901676,-7.55625,-0.15,-33.881252
1763129364416,0.15134603,6.2051873,7.2418776,0.03161225,-0.14828743,0.026572619,0.32633698,-0.03535807,-0.11901676,-7.55625,-0.15,-33.881252
1763129364418,0.008374879,6.1028943,7.8167534,0.03161225,-0.14828743,0.026572619,0.32633698,-0.03535807,-0.11901676,-7.55625,-0.15,-33.881252
1763129364419,0.008374879,6.1028943,7.8167534,0.03161225,-0.14828743,0.026572619,0.32702863,-0.03720895,-0.118546724,-7.55625,-0.15,-33.881252
1763129364420,0.008374879,6.1028943,7.8167534,0.03161225,-0.14828743,0.026572619,0.32702863,-0.03720895,-0.118546724,-5.86875,0.5625,-34.631252
1763129364437,0.008374879,6.1028943,7.8167534,0.0772744,-0.17363831,0.026572619,0.32702863,-0.03720895,-0.118546724,-5.86875,0.5625,-34.631252
1763129364438,0.0065802624,6.2147584,8.526823,0.0772744,-0.17363831,0.026572619,0.32702863,-0.03720895,-0.118546724,-5.86875,0.5625,-34.631252
1763129364438,0.0065802624,6.2147584,8.526823,0.0772744,-0.17363831,0.026572619,0.3274012,-0.03915561,-0.118777186,-5.86875,0.5625,-34.631252
1763129364439,0.0065802624,6.2147584,8.526823,0.0772744,-0.17363831,0.026572619,0.3274012,-0.03915561,-0.118777186,-6.9187503,-0.0,-35.25
1763129364459,0.0065802624,6.2147584,8.526823,0.0772744,-0.17363831,0.026572619,0.32720083,-0.038439766,-0.11838184,-6.9187503,-0.0,-35.25
1763129364460,-0.11306087,6.079564,8.78465,0.0772744,-0.17363831,0.026572619,0.32720083,-0.038439766,-0.11838184,-6.9187503,-0.0,-35.25
1763129364461,-0.11306087,6.079564,8.78465,0.04535671,0.08842268,0.01527162,0.32720083,-0.038439766,-0.11838184,-6.9187503,-0.0,-35.25
1763129364462,-0.11306087,6.079564,8.78465,0.04535671,0.08842268,0.01527162,0.32720083,-0.038439766,-0.11838184,-6.8812504,1.29375,-34.21875
1763129364478,-0.11306087,6.079564,8.78465,0.07391464,0.25045455,0.033902995,0.32720083,-0.038439766,-0.11838184,-6.8812504,1.29375,-34.21875
1763129364479,-0.11306087,6.079564,8.78465,0.07391464,0.25045455,0.033902995,0.32720083,-0.038439766,-0.11838184,-6.8812504,1.29375,-34.21875
1763129364480,-0.360718,5.800202,7.847262,0.07391464,0.25045455,0.033902995,0.32720083,-0.038439766,-0.11838184,-6.8812504,1.29375,-34.21875
1763129364498,-0.360718,5.800202,7.847262,0.07391464,0.25045455,0.033902995,0.32720083,-0.038439766,-0.11838184,-7.6125,-1.4250001,-32.643753
1763129364500,-0.276371,5.988637,7.773084,0.07391464,0.25045455,0.033902995,0.32720083,-0.038439766,-0.11838184,-7.6125,-1.4250001,-32.643753
1763129364502,-0.276371,5.988637,7.773084,0.07391464,0.25045455,0.033902995,0.32804838,-0.03617743,-0.11721635,-7.6125,-1.4250001,-32.643753
1763129364503,-0.276371,5.988637,7.773084,0.07391464,0.25045455,0.033902995,0.3298304,-0.036507208,-0.11615675,-7.6125,-1.4250001,-32.643753
1763129364504,-0.276371,5.988637,7.773084,0.19165882,0.022449281,0.10506874,0.3298304,-0.036507208,-0.11615675,-7.6125,-1.4250001,-32.643753
1763129364517,-0.276371,5.988637,7.773084,0.19165882,0.022449281,0.10506874,0.3298304,-0.036507208,-0.11615675,-6.2812505,-0.01875,-34.912502
1763129364520,-0.276371,5.988637,7.773084,0.2196059,-0.032681264,0.073303774,0.3298304,-0.036507208,-0.11615675,-6.2812505,-0.01875,-34.912502
1763129364521,0.0047856453,5.9407806,7.733603,0.2196059,-0.032681264,0.073303774,0.3298304,-0.036507208,-0.11615675,-6.2812505,-0.01875,-34.912502
1763129364521,0.0047856453,5.9407806,7.733603,0.2196059,-0.032681264,0.073303774,0.33186415,-0.037315775,-0.11555369,-6.2812505,-0.01875,-34.912502
1763129364538,0.0047856453,5.9407806,7.733603,0.2196059,-0.032681264,0.073303774,0.33186415,-0.037315775,-0.11555369,-7.275,-0.24375,-34.6875
1763129364542,-0.21714866,5.825925,7.7276206,0.2196059,-0.032681264,0.073303774,0.33186415,-0.037315775,-0.11555369,-7.275,-0.24375,-34.6875
1763129364543,-0.21714866,5.825925,7.7276206,0.16142102,0.06918044,0.0537561,0.33186415,-0.037315775,-0.11555369,-7.275,-0.24375,-34.6875
1763129364544,-0.21714866,5.825925,7.7276206,0.16142102,0.06918044,0.0537561,0.33344007,-0.037028946,-0.11471698,-7.275,-0.24375,-34.6875
1763129364558,-0.21714866,5.825925,7.7276206,0.16142102,0.06918044,0.0537561,0.33344007,-0.037028946,-0.11471698,-7.7812505,-0.8625,-36.1875
1763129364562,-0.21714866,5.825925,7.7276206,0.17211115,0.10797035,0.10873393,0.33344007,-0.037028946,-0.11471698,-7.7812505,-0.8625,-36.1875
1763129364562,-0.21714866,5.825925,7.7276206,0.17211115,0.10797035,0.10873393,0.33512068,-0.036531907,-0.11328232,-7.7812505,-0.8625,-36.1875
1763129364563,-0.11306087,5.980262,7.5326056,0.17211115,0.10797035,0.10873393,0.33512068,-0.036531907,-0.11328232,-7.7812505,-0.8625,-36.1875
1763129364577,-0.11306087,5.980262,7.5326056,0.17211115,0.10797035,0.10873393,0.33512068,-0.036531907,-0.11328232,-7.65,-1.7812501,-34.987503
1763129364584,-0.11306087,5.980262,7.5326056,0.21532984,0.100181825,0.10109812,0.33512068,-0.036531907,-0.11328232,-7.65,-1.7812501,-34.987503
1763129364585,-0.11306087,5.980262,7.5326056,0.21532984,0.100181825,0.10109812,0.33726412,-0.036153477,-0.11188184,-7.65,-1.7812501,-34.987503
1763129364586,0.020937199,6.22433,7.318448,0.21532984,0.100181825,0.10109812,0.33726412,-0.036153477,-0.11188184,-7.65,-1.7812501,-34.987503
1763129364598,0.020937199,6.22433,7.318448,0.21532984,0.100181825,0.10109812,0.33726412,-0.036153477,-0.11188184,-8.3625,-2.90625,-34.74375
1763129364604,0.020937199,6.22433,7.318448,0.24663666,0.06398808,0.07742711,0.33726412,-0.036153477,-0.11188184,-8.3625,-2.90625,-34.74375
1763129364604,0.020937199,6.22433,7.318448,0.24663666,0.06398808,0.07742711,0.33974278,-0.036103956,-0.11076454,-8.3625,-2.90625,-34.74375
1763129364605,0.0065802624,6.206982,7.179664,0.24663666,0.06398808,0.07742711,0.33974278,-0.036103956,-0.11076454,-8.3625,-2.90625,-34.74375
1763129364618,0.0065802624,6.206982,7.179664,0.24663666,0.06398808,0.07742711,0.33974278,-0.036103956,-0.11076454,-8.043751,-2.5125,-34.4625
1763129364626,0.0065802624,6.206982,7.179664,0.24617851,0.047647454,0.091018856,0.33974278,-0.036103956,-0.11076454,-8.043751,-2.5125,-34.4625
1763129364627,0.13579269,6.329614,6.9212394,0.24617851,0.047647454,0.091018856,0.33974278,-0.036103956,-0.11076454,-8.043751,-2.5125,-34.4625
1763129364638,0.13579269,6.329614,6.9212394,0.24617851,0.047647454,0.091018856,0.34219646,-0.036259957,-0.10957578,-8.043751,-2.5125,-34.4625
1763129364639,0.13579269,6.329614,6.9212394,0.24617851,0.047647454,0.091018856,0.34219646,-0.036259957,-0.10957578,-7.1062503,-1.1812501,-35.287502
1763129364646,0.13579269,6.329614,6.9212394,0.17119485,0.019394957,0.057574004,0.34219646,-0.036259957,-0.10957578,-7.1062503,-1.1812501,-35.287502
1763129364647,0.2650051,6.4331036,6.8015985,0.17119485,0.019394957,0.057574004,0.34219646,-0.036259957,-0.10957578,-7.1062503,-1.1812501,-35.287502
1763129364658,0.2650051,6.4331036,6.8015985,0.17119485,0.019394957,0.057574004,0.34394675,-0.03650612,-0.10878695,-7.1062503,-1.1812501,-35.287502
1763129364659,0.2650051,6.4331036,6.8015985,0.17119485,0.019394957,0.057574004,0.34394675,-0.03650612,-0.10878695,-6.9375005,-0.0,-34.050003
1763129364667,0.2650051,6.4331036,6.8015985,0.04612029,0.05497783,0.031917684,0.34394675,-0.03650612,-0.10878695,-6.9375005,-0.0,-34.050003
1763129364668,0.20279172,6.4815583,6.862615,0.04612029,0.05497783,0.031917684,0.34394675,-0.03650612,-0.10878695,-6.9375005,-0.0,-34.050003
1763129364677,0.20279172,6.4815583,6.862615,0.04612029,0.05497783,0.031917684,0.34455597,-0.036188178,-0.10811318,-6.9375005,-0.0,-34.050003
1763129364678,0.20279172,6.4815583,6.862615,0.04612029,0.05497783,0.031917684,0.34455597,-0.036188178,-0.10811318,-8.90625,-2.71875,-34.66875
1763129364691,0.20279172,6.4815583,6.862615,-0.057268575,0.060322896,0.027030766,0.34455597,-0.036188178,-0.10811318,-8.90625,-2.71875,-34.66875
1763129364693,0.1160519,6.48096,7.0893354,-0.057268575,0.060322896,0.027030766,0.34455597,-0.036188178,-0.10811318,-8.90625,-2.71875,-34.66875
1763129364700,0.1160519,6.48096,7.0893354,-0.057268575,0.060322896,0.027030766,0.34416452,-0.03567419,-0.10752613,-8.90625,-2.71875,-34.66875
1763129364701,0.1160519,6.48096,7.0893354,-0.057268575,0.060322896,0.027030766,0.34416452,-0.03567419,-0.10752613,-5.775,0.90000004,-36.05625
1763129364709,0.1160519,6.48096,7.0893354,-0.043371398,0.02489274,0.033444848,0.34416452,-0.03567419,-0.10752613,-5.775,0.90000004,-36.05625
1763129364710,0.12921242,6.454639,7.5122666,-0.043371398,0.02489274,0.033444848,0.34416452,-0.03567419,-0.10752613,-5.775,0.90000004,-36.05625
1763129364718,0.12921242,6.454639,7.5122666,-0.043371398,0.02489274,0.033444848,0.3438339,-0.03553168,-0.1070391,-5.775,0.90000004,-36.05625
1763129364719,0.12921242,6.454639,7.5122666,-0.043371398,0.02489274,0.033444848,0.3438339,-0.03553168,-0.1070391,-7.5000005,-2.71875,-34.55625
1763129364733,0.12921242,6.454639,7.5122666,0.027030766,0.039095346,0.013897174,0.3438339,-0.03553168,-0.1070391,-7.5000005,-2.71875,-34.55625
1763129364734,0.2536392,6.38764,7.7671022,0.027030766,0.039095346,0.013897174,0.3438339,-0.03553168,-0.1070391,-7.5000005,-2.71875,-34.55625
1763129364738,0.2536392,6.38764,7.7671022,0.027030766,0.039095346,0.013897174,0.34414145,-0.035260085,-0.106680095,-7.5000005,-2.71875,-34.55625
1763129364739,0.2536392,6.38764,7.7671022,0.027030766,0.039095346,0.013897174,0.34414145,-0.035260085,-0.106680095,-6.4687505,-1.1812501,-34.65
1763129364751,0.2536392,6.38764,7.7671022,0.057726722,0.13225223,-0.0056504994,0.34414145,-0.035260085,-0.106680095,-6.4687505,-1.1812501,-34.65
1763129364752,0.116650105,6.329614,7.6941214,0.057726722,0.13225223,-0.0056504994,0.34414145,-0.035260085,-0.106680095,-6.4687505,-1.1812501,-34.65
1763129364757,0.116650105,6.329614,7.6941214,0.057726722,0.13225223,-0.0056504994,0.34480324,-0.034061823,-0.10613045,-6.4687505,-1.1812501,-34.65
1763129364758,0.116650105,6.329614,7.6941214,0.057726722,0.13225223,-0.0056504994,0.34480324,-0.034061823,-0.10613045,-7.36875,-1.2375001,-34.29375
1763129364772,0.116650105,6.329614,7.6941214,0.043371398,0.20509785,-6.108648E-4,0.34480324,-0.034061823,-0.10613045,-7.36875,-1.2375001,-34.29375
1763129364773,-0.106480606,6.344569,7.722237,0.043371398,0.20509785,-6.108648E-4,0.34480324,-0.034061823,-0.10613045,-7.36875,-1.2375001,-34.29375
1763129364778,-0.106480606,6.344569,7.722237,0.043371398,0.20509785,-6.108648E-4,0.34540254,-0.0321377,-0.10530817,-7.36875,-1.2375001,-34.29375
1763129364779,-0.106480606,6.344569,7.722237,0.043371398,0.20509785,-6.108648E-4,0.34540254,-0.0321377,-0.10530817,-5.1937504,0.39375,-35.60625
1763129364793,-0.106480606,6.344569,7.722237,0.051618073,0.27275112,0.0067195124,0.34540254,-0.0321377,-0.10530817,-5.1937504,0.39375,-35.60625
1763129364794,-0.22671995,6.2979093,7.454241,0.051618073,0.27275112,0.0067195124,0.34540254,-0.0321377,-0.10530817,-5.1937504,0.39375,-35.60625
1763129364798,-0.22671995,6.2979093,7.454241,0.051618073,0.27275112,0.0067195124,0.34540254,-0.0321377,-0.10530817,-5.3250003,1.0125,-33.675003
1763129364814,-0.22671995,6.2979093,7.454241,0.07666353,0.075594515,-0.039095346,0.34540254,-0.0321377,-0.10530817,-5.3250003,1.0125,-33.675003
1763129364815,-0.61734825,6.4331036,6.0777693,0.07666353,0.075594515,-0.039095346,0.34540254,-0.0321377,-0.10530817,-5.3250003,1.0125,-33.675003
1763129364819,-0.61734825,6.4331036,6.0777693,0.07666353,0.075594515,-0.039095346,0.34584787,-0.029607942,-0.10418599,-5.3250003,1.0125,-33.675003
1763129364819,-0.61734825,6.4331036,6.0777693,0.07666353,0.075594515,-0.039095346,0.34655687,-0.028763501,-0.10441168,-5.3250003,1.0125,-33.675003
1763129364820,-0.61734825,6.4331036,6.0777693,0.07666353,0.075594515,-0.039095346,0.34655687,-0.028763501,-0.10441168,-5.9625,-2.025,-33.975002
1763129364835,-0.61734825,6.4331036,6.0777693,-0.007941242,-0.229227,-0.045203995,0.34655687,-0.028763501,-0.10441168,-5.9625,-2.025,-33.975002
1763129364836,-0.44985065,6.1124654,7.082755,-0.007941242,-0.229227,-0.045203995,0.34655687,-0.028763501,-0.10441168,-5.9625,-2.025,-33.975002
1763129364839,-0.44985065,6.1124654,7.082755,-0.007941242,-0.229227,-0.045203995,0.34655687,-0.028763501,-0.10441168,-6.0,-1.725,-35.268753
1763129364856,-0.44985065,6.1124654,7.082755,-0.17241658,-0.117744185,-0.0051923506,0.34655687,-0.028763501,-0.10441168,-6.0,-1.725,-35.268753
1763129364857,-0.13280165,6.1860447,8.050652,-0.17241658,-0.117744185,-0.0051923506,0.34655687,-0.028763501,-0.10441168,-6.0,-1.725,-35.268753
1763129364859,-0.13280165,6.1860447,8.050652,-0.17241658,-0.117744185,-0.0051923506,0.34647092,-0.030765276,-0.105790064,-6.0,-1.725,-35.268753
1763129364860,-0.13280165,6.1860447,8.050652,-0.17241658,-0.117744185,-0.0051923506,0.34466243,-0.031774785,-0.106741175,-6.0,-1.725,-35.268753
1763129364861,-0.13280165,6.1860447,8.050652,-0.17241658,-0.117744185,-0.0051923506,0.34466243,-0.031774785,-0.106741175,-7.4062505,-1.725,-34.93125
1763129364896,-0.13280165,6.1860447,8.050652,-0.2196059,0.21410811,-0.022754714,0.34466243,-0.031774785,-0.106741175,-7.4062505,-1.725,-34.93125
1763129364897,-0.13280165,6.1860447,8.050652,-0.2196059,0.21410811,-0.022754714,0.34466243,-0.031774785,-0.106741175,-6.4687505,-1.1812501,-34.95
1763129364898,-0.13280165,6.1860447,8.050652,-0.2196059,0.21410811,-0.022754714,0.3426321,-0.029495234,-0.10665616,-6.4687505,-1.1812501,-34.95
1763129364899,-0.27876383,6.0508504,8.2348995,-0.2196059,0.21410811,-0.022754714,0.3426321,-0.029495234,-0.10665616,-6.4687505,-1.1812501,-34.95
1763129364900,-0.27876383,6.0508504,8.2348995,-0.08032872,0.15057817,0.0097738365,0.3426321,-0.029495234,-0.10665616,-6.4687505,-1.1812501,-34.95
1763129364901,-0.27876383,6.0508504,8.2348995,-0.08032872,0.15057817,0.0097738365,0.3418356,-0.028102593,-0.10652576,-6.4687505,-1.1812501,-34.95
1763129364902,-0.27876383,6.0508504,8.2348995,-0.08032872,0.15057817,0.0097738365,0.3418356,-0.028102593,-0.10652576,-7.2187505,-2.0062501,-35.568752
1763129364902,-0.69212395,5.9754763,7.650452,-0.08032872,0.15057817,0.0097738365,0.3418356,-0.028102593,-0.10652576,-7.2187505,-2.0062501,-35.568752
