timestamp,accX,accY,accZ,gyroX,gyroY,gyroZ,rotX,rotY,rotZ,magX,magY,magZ
1763129344738,1.8364913,3.5336008,8.583653,-0.46899143,0.08643737,-0.07467822,0.14413193,-0.15333416,-0.34245792,-16.725,4.9875,-26.925001
1763129344746,1.8364913,3.5336008,8.583653,-0.37980518,0.2490801,-0.098654665,0.14413193,-0.15333416,-0.34245792,-16.725,4.9875,-26.925001
1763129344746,1.5421742,3.5874393,8.991031,-0.37980518,0.2490801,-0.098654665,0.14413193,-0.15333416,-0.34245792,-16.725,4.9875,-26.925001
1763129344758,1.5421742,3.5874393,8.991031,-0.37980518,0.2490801,-0.098654665,0.14175884,-0.14964512,-0.34276602,-16.725,4.9875,-26.925001
1763129344759,1.5421742,3.5874393,8.991031,-0.37980518,0.2490801,-0.098654665,0.14175884,-0.14964512,-0.34276602,-18.35625,3.825,-24.975
1763129344767,1.5421742,3.5874393,8.991031,-0.20311254,0.17211115,-0.103236146,0.14175884,-0.14964512,-0.34276602,-18.35625,3.825,-24.975
1763129344768,1.18684,3.635894,8.866006,-0.20311254,0.17211115,-0.103236146,0.14175884,-0.14964512,-0.34276602,-18.35625,3.825,-24.975
1763129344779,1.18684,3.635894,8.866006,-0.20311254,0.17211115,-0.103236146,0.14078307,-0.14690463,-0.3438975,-18.35625,3.825,-24.975
1763129344780,1.18684,3.635894,8.866006,-0.20311254,0.17211115,-0.103236146,0.14078307,-0.14690463,-0.3438975,-15.431251,6.43125,-26.175001
1763129344788,1.18684,3.635894,8.866006,-0.06704241,0.11255184,-0.06811142,0.14078307,-0.14690463,-0.3438975,-15.431251,6.43125,-26.175001
1763129344789,1.247857,3.8536408,9.158528,-0.06704241,0.11255184,-0.06811142,0.14078307,-0.14690463,-0.3438975,-15.431251,6.43125,-26.175001
1763129344797,1.247857,3.8536408,9.158528,-0.06704241,0.11255184,-0.06811142,0.14113438,-0.1449387,-0.34508568,-15.431251,6.43125,-26.175001
1763129344797,1.247857,3.8536408,9.158528,-0.06704241,0.11255184,-0.06811142,0.14113438,-0.1449387,-0.34508568,-18.806252,4.5,-27.862501
1763129344808,1.247857,3.8536408,9.158528,-0.00962112,0.077121675,-0.020005822,0.14113438,-0.1449387,-0.34508568,-18.806252,4.5,-27.862501
1763129344809,1.2711871,3.754937,8.995817,-0.00962112,0.077121675,-0.020005822,0.14113438,-0.1449387,-0.34508568,-18.806252,4.5,-27.862501
1763129344819,1.2711871,3.754937,8.995817,-0.00962112,0.077121675,-0.020005822,0.14199777,-0.1436669,-0.34552172,-18.806252,4.5,-27.862501
1763129344820,1.2711871,3.754937,8.995817,-0.00962112,0.077121675,-0.020005822,0.14199777,-0.1436669,-0.34552172,-16.9125,6.0750003,-25.7625
1763129344830,1.2711871,3.754937,8.995817,-0.028863361,0.026267186,0.0108428495,0.14199777,-0.1436669,-0.34552172,-16.9125,6.0750003,-25.7625
1763129344831,1.3986049,3.6000016,8.919247,-0.028863361,0.026267186,0.0108428495,0.14199777,-0.1436669,-0.34552172,-16.9125,6.0750003,-25.7625
1763129344838,1.3986049,3.6000016,8.919247,-0.028863361,0.026267186,0.0108428495,0.14199777,-0.1436669,-0.34552172,-15.0375,6.5062504,-28.35
1763129344839,1.3986049,3.6000016,8.919247,-0.028863361,0.026267186,0.0108428495,0.14234488,-0.14294934,-0.34573188,-15.0375,6.5062504,-28.35
1763129344851,1.3986049,3.6000016,8.919247,-0.06536253,0.054825112,0.0044287695,0.14234488,-0.14294934,-0.34573188,-15.0375,6.5062504,-28.35
1763129344852,1.5092729,3.4851463,9.095717,-0.06536253,0.054825112,0.0044287695,0.14234488,-0.14294934,-0.34573188,-15.0375,6.5062504,-28.35
1763129344858,1.5092729,3.4851463,9.095717,-0.06536253,0.054825112,0.0044287695,0.14220573,-0.14197628,-0.34575745,-15.0375,6.5062504,-28.35
1763129344859,1.5092729,3.4851463,9.095717,-0.06536253,0.054825112,0.0044287695,0.14220573,-0.14197628,-0.34575745,-15.4125,6.4125004,-27.675001
1763129344872,1.5092729,3.4851463,9.095717,-0.03940078,0.101250835,0.007177661,0.14220573,-0.14197628,-0.34575745,-15.4125,6.4125004,-27.675001
1763129344873,1.5026926,3.4540396,9.199206,-0.03940078,0.101250835,0.007177661,0.14220573,-0.14197628,-0.34575745,-15.4125,6.4125004,-27.675001
1763129344878,1.5026926,3.4540396,9.199206,-0.03940078,0.101250835,0.007177661,0.14213747,-0.14073825,-0.3456781,-15.4125,6.4125004,-27.675001
1763129344878,1.5026926,3.4540396,9.199206,-0.03940078,0.101250835,0.007177661,0.14213747,-0.14073825,-0.3456781,-16.06875,6.58125,-27.91875
1763129344893,1.5026926,3.4540396,9.199206,0.030695954,0.034819294,-0.002290743,0.14213747,-0.14073825,-0.3456781,-16.06875,6.58125,-27.91875
1763129344894,1.544567,3.4372897,9.1770735,0.030695954,0.034819294,-0.002290743,0.14213747,-0.14073825,-0.3456781,-16.06875,6.58125,-27.91875
1763129344898,1.544567,3.4372897,9.1770735,0.030695954,0.034819294,-0.002290743,0.14239445,-0.1403383,-0.34582037,-16.06875,6.58125,-27.91875
1763129344900,1.544567,3.4372897,9.1770735,0.030695954,0.034819294,-0.002290743,0.14239445,-0.1403383,-0.34582037,-15.637501,6.3562503,-28.781252
1763129344914,1.544567,3.4372897,9.1770735,0.057574004,-0.027183482,-0.017562363,0.14239445,-0.1403383,-0.34582037,-15.637501,6.3562503,-28.781252
1763129344915,1.5427724,3.4869409,8.99821,0.057574004,-0.027183482,-0.017562363,0.14239445,-0.1403383,-0.34582037,-15.637501,6.3562503,-28.781252
1763129344919,1.5427724,3.4869409,8.99821,0.057574004,-0.027183482,-0.017562363,0.14264861,-0.14067362,-0.34617317,-15.637501,6.3562503,-28.781252
1763129344920,1.5427724,3.4869409,8.99821,0.057574004,-0.027183482,-0.017562363,0.14264861,-0.14067362,-0.34617317,-15.76875,4.875,-29.79375
1763129344937,1.5427724,3.4869409,8.99821,0.011148282,-0.020616686,0.00763581,0.14264861,-0.14067362,-0.34617317,-15.76875,4.875,-29.79375
1763129344938,1.4691931,3.4869409,8.810373,0.011148282,-0.020616686,0.00763581,0.14264861,-0.14067362,-0.34617317,-15.76875,4.875,-29.79375
1763129344940,1.4691931,3.4869409,8.810373,0.011148282,-0.020616686,0.00763581,0.14265275,-0.1408713,-0.34604728,-15.76875,4.875,-29.79375
1763129344941,1.4691931,3.4869409,8.810373,0.011148282,-0.020616686,0.00763581,0.14265275,-0.1408713,-0.34604728,-15.187501,5.025,-27.843752
1763129344956,1.4691931,3.4869409,8.810373,-0.020922119,0.030390523,0.01970039,0.14265275,-0.1408713,-0.34604728,-15.187501,5.025,-27.843752
1763129344956,1.5038891,3.4325042,8.971889,-0.020922119,0.030390523,0.01970039,0.14265275,-0.1408713,-0.34604728,-15.187501,5.025,-27.843752
1763129344957,1.5038891,3.4325042,8.971889,-0.020922119,0.030390523,0.01970039,0.14266178,-0.1404604,-0.34576505,-15.187501,5.025,-27.843752
1763129344958,1.5038891,3.4325042,8.971889,-0.020922119,0.030390523,0.01970039,0.14266178,-0.1404604,-0.34576505,-14.718751,4.78125,-30.075
1763129344978,1.5038891,3.4325042,8.971889,-0.015729768,0.049480047,0.026725333,0.14266178,-0.1404604,-0.34576505,-14.718751,4.78125,-30.075
1763129344979,1.5038891,3.4325042,8.971889,-0.015729768,0.049480047,0.026725333,0.14257984,-0.13988085,-0.34549055,-14.718751,4.78125,-30.075
1763129344982,1.5038891,3.4325042,8.971889,-0.015729768,0.049480047,0.026725333,0.14257984,-0.13988085,-0.34549055,-15.562501,4.8,-25.781252
1763129344983,1.570888,3.4917264,8.897711,-0.015729768,0.049480047,0.026725333,0.14257984,-0.13988085,-0.34549055,-15.562501,4.8,-25.781252
1763129344998,1.6833507,3.3702908,8.904291,-0.015729768,0.049480047,0.026725333,0.14257984,-0.13988085,-0.34549055,-15.562501,4.8,-25.781252
1763129344999,1.6833507,3.3702908,8.904291,-0.015729768,0.049480047,0.026725333,0.14282297,-0.13965057,-0.34535497,-15.562501,4.8,-25.781252
1763129344999,1.6833507,3.3702908,8.904291,0.0070249448,0.029626941,-0.016798781,0.14282297,-0.13965057,-0.34535497,-15.562501,4.8,-25.781252
1763129344999,1.6833507,3.3702908,8.904291,0.0070249448,0.029626941,-0.016798781,0.14282297,-0.13965057,-0.34535497,-16.0125,4.51875,-26.737501
1763129345018,1.6833507,3.3702908,8.904291,0.0070249448,0.029626941,-0.016798781,0.14282297,-0.13965057,-0.34535497,-18.09375,4.03125,-26.925001
1763129345019,1.6833507,3.3702908,8.904291,0.064904384,0.016951498,-0.057879437,0.14282297,-0.13965057,-0.34535497,-18.09375,4.03125,-26.925001
1763129345020,1.6833507,3.3702908,8.904291,0.064904384,0.016951498,-0.057879437,0.14336225,-0.1397908,-0.3454534,-18.09375,4.03125,-26.925001
1763129345021,1.5984055,3.4342988,8.930014,0.064904384,0.016951498,-0.057879437,0.14336225,-0.1397908,-0.3454534,-18.09375,4.03125,-26.925001
1763129345037,1.5984055,3.4342988,8.930014,0.064904384,0.016951498,-0.057879437,0.14336225,-0.1397908,-0.3454534,-14.250001,5.55,-28.1625
1763129345040,1.5984055,3.4342988,8.930014,0.023365578,-0.0027488915,-0.015729768,0.14336225,-0.1397908,-0.3454534,-14.250001,5.55,-28.1625
1763129345041,1.5984055,3.4342988,8.930014,0.023365578,-0.0027488915,-0.015729768,0.14348082,-0.13994059,-0.34543735,-14.250001,5.55,-28.1625
1763129345042,1.3160524,3.528217,8.787642,0.023365578,-0.0027488915,-0.015729768,0.14348082,-0.13994059,-0.34543735,-14.250001,5.55,-28.1625
1763129345058,1.3160524,3.528217,8.787642,0.023365578,-0.0027488915,-0.015729768,0.14348082,-0.13994059,-0.34543735,-15.937501,5.7937503,-28.725
1763129345061,1.3160524,3.528217,8.787642,0.023365578,-0.0027488915,-0.015729768,0.14266512,-0.1396621,-0.3458157,-15.937501,5.7937503,-28.725
1763129345062,1.4919249,3.4773695,8.89472,0.023365578,-0.0027488915,-0.015729768,0.14266512,-0.1396621,-0.3458157,-15.937501,5.7937503,-28.725
1763129345063,1.4919249,3.4773695,8.89472,-0.100487255,-0.03161225,0.0015271619,0.14266512,-0.1396621,-0.3458157,-15.937501,5.7937503,-28.725
1763129345079,1.4919249,3.4773695,8.89472,-0.100487255,-0.03161225,0.0015271619,0.14266512,-0.1396621,-0.3458157,-14.6625,5.64375,-25.893751
1763129345082,1.4919249,3.4773695,8.89472,-0.11102467,-0.016035201,-0.0074830935,0.14266512,-0.1396621,-0.3458157,-14.6625,5.64375,-25.893751
1763129345083,1.4919249,3.4773695,8.89472,-0.11102467,-0.016035201,-0.0074830935,0.14161584,-0.13938569,-0.34615642,-14.6625,5.64375,-25.893751
1763129345084,1.4853446,3.4474592,9.006584,-0.11102467,-0.016035201,-0.0074830935,0.14161584,-0.13938569,-0.34615642,-14.6625,5.64375,-25.893751
1763129345098,1.4853446,3.4474592,9.006584,-0.11102467,-0.016035201,-0.0074830935,0.14161584,-0.13938569,-0.34615642,-13.06875,7.1062503,-29.1375
1763129345104,1.4853446,3.4474592,9.006584,-0.05650499,-0.032070402,-0.022449281,0.14161584,-0.13938569,-0.34615642,-13.06875,7.1062503,-29.1375
1763129345105,1.4853446,3.4474592,9.006584,-0.05650499,-0.032070402,-0.022449281,0.14098252,-0.13935928,-0.3465642,-13.06875,7.1062503,-29.1375
1763129345106,1.5475581,3.4761732,9.160921,-0.05650499,-0.032070402,-0.022449281,0.14098252,-0.13935928,-0.3465642,-13.06875,7.1062503,-29.1375
1763129345117,1.5475581,3.4761732,9.160921,-0.05650499,-0.032070402,-0.022449281,0.14098252,-0.13935928,-0.3465642,-13.500001,7.9875,-27.225
1763129345123,1.5475581,3.4761732,9.160921,0.033902995,-0.025503604,-0.06582068,0.14098252,-0.13935928,-0.3465642,-13.500001,7.9875,-27.225
1763129345124,1.5475581,3.4761732,9.160921,0.033902995,-0.025503604,-0.06582068,0.14120583,-0.13958904,-0.34735337,-13.500001,7.9875,-27.225
1763129345124,1.5487545,3.4540396,9.167501,0.033902995,-0.025503604,-0.06582068,0.14120583,-0.13958904,-0.34735337,-13.500001,7.9875,-27.225
1763129345137,1.5487545,3.4540396,9.167501,0.033902995,-0.025503604,-0.06582068,0.14120583,-0.13958904,-0.34735337,-16.706251,4.9875,-27.675001
1763129345145,1.5487545,3.4540396,9.167501,0.033902995,-0.025503604,-0.06582068,0.14214487,-0.1406076,-0.3484406,-16.706251,4.9875,-27.675001
1763129345147,1.5487545,3.4540396,9.167501,0.13209951,-0.07956514,-0.10002911,0.14214487,-0.1406076,-0.3484406,-16.706251,4.9875,-27.675001
1763129345148,1.4003994,3.4713874,8.869596,0.13209951,-0.07956514,-0.10002911,0.14214487,-0.1406076,-0.3484406,-16.706251,4.9875,-27.675001
1763129345158,1.4003994,3.4713874,8.869596,0.13209951,-0.07956514,-0.10002911,0.14214487,-0.1406076,-0.3484406,-15.50625,4.78125,-29.081251
1763129345166,1.4003994,3.4713874,8.869596,0.13362667,-0.14446951,-0.083993904,0.14214487,-0.1406076,-0.3484406,-15.50625,4.78125,-29.081251
1763129345167,1.338186,3.586243,8.674581,0.13362667,-0.14446951,-0.083993904,0.14214487,-0.1406076,-0.3484406,-15.50625,4.78125,-29.081251
1763129345179,1.338186,3.586243,8.674581,0.13362667,-0.14446951,-0.083993904,0.14309041,-0.1421261,-0.3493524,-15.50625,4.78125,-29.081251
1763129345180,1.338186,3.586243,8.674581,0.13362667,-0.14446951,-0.083993904,0.14309041,-0.1421261,-0.3493524,-16.5,3.7500002,-28.050001
1763129345188,1.338186,3.586243,8.674581,0.11102467,-0.23441936,-0.08078687,0.14309041,-0.1421261,-0.3493524,-16.5,3.7500002,-28.050001
1763129345189,1.3686945,3.5060835,8.694321,0.11102467,-0.23441936,-0.08078687,0.14309041,-0.1421261,-0.3493524,-16.5,3.7500002,-28.050001
1763129345197,1.3686945,3.5060835,8.694321,0.11102467,-0.23441936,-0.08078687,0.14309041,-0.1421261,-0.3493524,-15.225,6.7875004,-26.6625
1763129345198,1.3686945,3.5060835,8.694321,0.11102467,-0.23441936,-0.08078687,0.14376326,-0.14442083,-0.35045025,-15.225,6.7875004,-26.6625
1763129345207,1.3686945,3.5060835,8.694321,0.13087778,-0.38056874,-0.13179408,0.14376326,-0.14442083,-0.35045025,-15.225,6.7875004,-26.6625
1763129345208,1.6671991,3.426522,8.765508,0.13087778,-0.38056874,-0.13179408,0.14376326,-0.14442083,-0.35045025,-15.225,6.7875004,-26.6625
1763129345217,1.6671991,3.426522,8.765508,0.13087778,-0.38056874,-0.13179408,0.14395651,-0.14803265,-0.35244262,-15.225,6.7875004,-26.6625
1763129345218,1.6671991,3.426522,8.765508,0.13087778,-0.38056874,-0.13179408,0.14395651,-0.14803265,-0.35244262,-17.98125,4.8562503,-27.112501
1763129345229,1.6671991,3.426522,8.765508,0.21441354,-0.53129965,-0.28069237,0.14395651,-0.14803265,-0.35244262,-17.98125,4.8562503,-27.112501
1763129345230,1.8951155,3.2177482,8.930014,0.21441354,-0.53129965,-0.28069237,0.14395651,-0.14803265,-0.35244262,-17.98125,4.8562503,-27.112501
1763129345238,1.8951155,3.2177482,8.930014,0.21441354,-0.53129965,-0.28069237,0.1442413,-0.15338838,-0.3557852,-17.98125,4.8562503,-27.112501
1763129345238,1.8951155,3.2177482,8.930014,0.21441354,-0.53129965,-0.28069237,0.1442413,-0.15338838,-0.3557852,-16.331251,5.08125,-27.900002
1763129345250,1.8951155,3.2177482,8.930014,0.31199917,-0.64492047,-0.4741838,0.1442413,-0.15338838,-0.3557852,-16.331251,5.08125,-27.900002
1763129345250,1.9938195,3.339184,8.765508,0.31199917,-0.64492047,-0.4741838,0.1442413,-0.15338838,-0.3557852,-16.331251,5.08125,-27.900002
1763129345258,1.9938195,3.339184,8.765508,0.31199917,-0.64492047,-0.4741838,0.14466478,-0.15991683,-0.3612781,-16.331251,5.08125,-27.900002
1763129345259,1.9938195,3.339184,8.765508,0.31199917,-0.64492047,-0.4741838,0.14466478,-0.15991683,-0.3612781,-15.225,5.3250003,-28.087502
1763129345271,1.9938195,3.339184,8.765508,0.23503022,-0.8781181,-0.5247328,0.14466478,-0.15991683,-0.3612781,-15.225,5.3250003,-28.087502
1763129345272,1.8568304,3.6478581,8.64467,0.23503022,-0.8781181,-0.5247328,0.14466478,-0.15991683,-0.3612781,-15.225,5.3250003,-28.087502
1763129345278,1.8568304,3.6478581,8.64467,0.23503022,-0.8781181,-0.5247328,0.14374967,-0.16830908,-0.3674982,-15.225,5.3250003,-28.087502
1763129345279,1.8568304,3.6478581,8.64467,0.23503022,-0.8781181,-0.5247328,0.14374967,-0.16830908,-0.3674982,-15.76875,4.7250004,-28.3875
1763129345291,1.8568304,3.6478581,8.64467,-0.0108428495,-0.9941824,-0.5018254,0.14374967,-0.16830908,-0.3674982,-15.76875,4.7250004,-28.3875
1763129345292,1.9986051,3.7166517,8.663215,-0.0108428495,-0.9941824,-0.5018254,0.14374967,-0.16830908,-0.3674982,-15.76875,4.7250004,-28.3875
1763129345298,1.9986051,3.7166517,8.663215,-0.0108428495,-0.9941824,-0.5018254,0.14066286,-0.17665364,-0.37418383,-15.76875,4.7250004,-28.3875
1763129345299,1.9986051,3.7166517,8.663215,-0.0108428495,-0.9941824,-0.5018254,0.14066286,-0.17665364,-0.37418383,-17.362501,2.60625,-26.325
1763129345313,1.9986051,3.7166517,8.663215,-0.20723587,-1.0106758,-0.5083922,0.14066286,-0.17665364,-0.37418383,-17.362501,2.60625,-26.325
1763129345314,2.2205393,3.757928,8.797811,-0.20723587,-1.0106758,-0.5083922,0.14066286,-0.17665364,-0.37418383,-17.362501,2.60625,-26.325
1763129345318,2.2205393,3.757928,8.797811,-0.20723587,-1.0106758,-0.5083922,0.13576181,-0.1843603,-0.38118646,-17.362501,2.60625,-26.325
1763129345319,2.2205393,3.757928,8.797811,-0.20723587,-1.0106758,-0.5083922,0.13576181,-0.1843603,-0.38118646,-16.650002,4.5375004,-26.025002
1763129345334,2.2205393,3.757928,8.797811,-0.24785839,-0.99066997,-0.5178606,0.13576181,-0.1843603,-0.38118646,-16.650002,4.5375004,-26.025002
1763129345335,2.3754747,3.778865,9.067003,-0.24785839,-0.99066997,-0.5178606,0.13576181,-0.1843603,-0.38118646,-16.650002,4.5375004,-26.025002
1763129345338,2.3754747,3.778865,9.067003,-0.24785839,-0.99066997,-0.5178606,0.13050714,-0.19173922,-0.38825935,-16.650002,4.5375004,-26.025002
1763129345339,2.3754747,3.778865,9.067003,-0.24785839,-0.99066997,-0.5178606,0.13050714,-0.19173922,-0.38825935,-19.44375,2.775,-25.63125
1763129345355,2.3754747,3.778865,9.067003,-0.115453444,-0.90957767,-0.5328268,0.13050714,-0.19173922,-0.38825935,-19.44375,2.775,-25.63125
1763129345356,2.6069803,3.7914274,9.314062,-0.115453444,-0.90957767,-0.5328268,0.13050714,-0.19173922,-0.38825935,-19.44375,2.775,-25.63125
1763129345358,2.6069803,3.7914274,9.314062,-0.115453444,-0.90957767,-0.5328268,0.12668358,-0.19872473,-0.3951244,-19.44375,2.775,-25.63125
1763129345359,2.6069803,3.7914274,9.314062,-0.115453444,-0.90957767,-0.5328268,0.12668358,-0.19872473,-0.3951244,-19.425001,2.625,-25.125002
1763129345376,2.6069803,3.7914274,9.314062,0.13423753,-0.7864884,-0.54718214,0.12668358,-0.19872473,-0.3951244,-19.425001,2.625,-25.125002
1763129345377,2.6081767,3.8907297,9.1681,0.13423753,-0.7864884,-0.54718214,0.12668358,-0.19872473,-0.3951244,-19.425001,2.625,-25.125002
1763129345379,2.6081767,3.8907297,9.1681,0.13423753,-0.7864884,-0.54718214,0.12537786,-0.2055611,-0.4015801,-19.425001,2.625,-25.125002
1763129345381,2.6081767,3.8907297,9.1681,0.13423753,-0.7864884,-0.54718214,0.12537786,-0.2055611,-0.4015801,-18.393751,3.4875002,-26.41875
1763129345398,2.6081767,3.8907297,9.1681,0.35491243,-0.7011201,-0.48594293,0.12537786,-0.2055611,-0.4015801,-18.393751,3.4875002,-26.41875
1763129345399,2.6081767,3.8907297,9.1681,0.35491243,-0.7011201,-0.48594293,0.12643401,-0.21253844,-0.4068855,-18.393751,3.4875002,-26.41875
1763129345400,2.6081767,3.8907297,9.1681,0.35491243,-0.7011201,-0.48594293,0.12643401,-0.21253844,-0.4068855,-18.825,2.7562501,-24.225
1763129345401,2.4281168,3.9750767,8.9108715,0.35491243,-0.7011201,-0.48594293,0.12643401,-0.21253844,-0.4068855,-18.825,2.7562501,-24.225
1763129345419,2.4281168,3.9750767,8.9108715,0.40530878,-0.6036871,-0.2961167,0.12643401,-0.21253844,-0.4068855,-18.825,2.7562501,-24.225
1763129345420,2.4281168,3.9750767,8.9108715,0.40530878,-0.6036871,-0.2961167,0.12820023,-0.21883678,-0.4102577,-18.825,2.7562501,-24.225
1763129345422,2.1948166,4.0761733,8.377871,0.40530878,-0.6036871,-0.2961167,0.12820023,-0.21883678,-0.4102577,-18.825,2.7562501,-24.225
1763129345424,2.1948166,4.0761733,8.377871,0.40530878,-0.6036871,-0.2961167,0.12820023,-0.21883678,-0.4102577,-20.025002,2.4750001,-26.325
1763129345437,2.1948166,4.0761733,8.377871,0.40530878,-0.6036871,-0.2961167,0.12820023,-0.21883678,-0.4102577,-18.900002,1.7812501,-24.900002
1763129345439,2.1948166,4.0761733,8.377871,0.40530878,-0.6036871,-0.2961167,0.12884155,-0.22398008,-0.41167906,-18.900002,1.7812501,-24.900002
1763129345440,2.1948166,4.0761733,8.377871,0.24449863,-0.53053606,-0.07024945,0.12884155,-0.22398008,-0.41167906,-18.900002,1.7812501,-24.900002
1763129345441,2.37368,4.3058844,8.159525,0.24449863,-0.53053606,-0.07024945,0.12884155,-0.22398008,-0.41167906,-18.900002,1.7812501,-24.900002
1763129345458,2.37368,4.3058844,8.159525,0.24449863,-0.53053606,-0.07024945,0.12884155,-0.22398008,-0.41167906,-18.618752,2.98125,-23.625
1763129345459,2.37368,4.3058844,8.159525,0.14462224,-0.45478883,0.0490219,0.12884155,-0.22398008,-0.41167906,-18.618752,2.98125,-23.625
1763129345460,2.37368,4.3058844,8.159525,0.14462224,-0.45478883,0.0490219,0.1290056,-0.2284801,-0.41159105,-18.618752,2.98125,-23.625
1763129345462,2.6273193,4.246662,8.283952,0.14462224,-0.45478883,0.0490219,0.1290056,-0.2284801,-0.41159105,-18.618752,2.98125,-23.625
1763129345478,2.6273193,4.246662,8.283952,0.14462224,-0.45478883,0.0490219,0.1290056,-0.2284801,-0.41159105,-20.8125,0.8625,-23.41875
1763129345480,2.6273193,4.246662,8.283952,0.16172644,-0.34956738,0.09560034,0.1290056,-0.2284801,-0.41159105,-20.8125,0.8625,-23.41875
1763129345482,2.8348966,4.179663,8.222935,0.16172644,-0.34956738,0.09560034,0.1290056,-0.2284801,-0.41159105,-20.8125,0.8625,-23.41875
1763129345499,2.8348966,4.179663,8.222935,0.16172644,-0.34956738,0.09560034,0.1290056,-0.2284801,-0.41159105,-20.90625,2.2687502,-25.0125
1763129345502,2.8348966,4.179663,8.222935,0.16172644,-0.34956738,0.09560034,0.12884784,-0.23246056,-0.4107363,-20.90625,2.2687502,-25.0125
1763129345504,2.8348966,4.179663,8.222935,0.13607013,-0.2886336,0.11056653,0.12884784,-0.23246056,-0.4107363,-20.90625,2.2687502,-25.0125
1763129345505,2.8348966,4.179663,8.222935,0.13607013,-0.2886336,0.11056653,0.12863475,-0.23582453,-0.40975395,-20.90625,2.2687502,-25.0125
1763129345507,2.970091,4.1072803,8.145168,0.13607013,-0.2886336,0.11056653,0.12863475,-0.23582453,-0.40975395,-20.90625,2.2687502,-25.0125
1763129345518,2.970091,4.1072803,8.145168,0.13607013,-0.2886336,0.11056653,0.12863475,-0.23582453,-0.40975395,-19.987501,2.0062501,-24.075
1763129345522,2.970091,4.1072803,8.145168,0.12034036,-0.2828304,0.087506376,0.12863475,-0.23582453,-0.40975395,-19.987501,2.0062501,-24.075
1763129345523,2.970091,4.1072803,8.145168,0.12034036,-0.2828304,0.087506376,0.12836148,-0.2390344,-0.40890375,-19.987501,2.0062501,-24.075
1763129345525,3.161517,4.0163527,8.2253275,0.12034036,-0.2828304,0.087506376,0.12836148,-0.2390344,-0.40890375,-19.987501,2.0062501,-24.075
1763129345538,3.161517,4.0163527,8.2253275,0.12034036,-0.2828304,0.087506376,0.12836148,-0.2390344,-0.40890375,-21.45,1.66875,-25.0125
1763129345545,3.161517,4.0163527,8.2253275,0.12034036,-0.2828304,0.087506376,0.12821856,-0.24216688,-0.40855393,-21.45,1.66875,-25.0125
1763129345547,3.161517,4.0163527,8.2253275,0.12721258,-0.27550003,0.04138609,0.12821856,-0.24216688,-0.40855393,-21.45,1.66875,-25.0125
1763129345548,3.3080773,4.0474596,8.1433735,0.12721258,-0.27550003,0.04138609,0.12821856,-0.24216688,-0.40855393,-21.45,1.66875,-25.0125
1763129345557,3.3080773,4.0474596,8.1433735,0.12721258,-0.27550003,0.04138609,0.12821856,-0.24216688,-0.40855393,-20.306252,2.41875,-23.53125
1763129345565,3.3080773,4.0474596,8.1433735,0.11300998,-0.23060146,0.016646065,0.12821856,-0.24216688,-0.40855393,-20.306252,2.41875,-23.53125
1763129345566,3.3080773,4.0474596,8.1433735,0.11300998,-0.23060146,0.016646065,0.12822509,-0.24480556,-0.40828606,-20.306252,2.41875,-23.53125
1763129345567,3.3511481,4.106084,7.911868,0.11300998,-0.23060146,0.016646065,0.12822509,-0.24480556,-0.40828606,-20.306252,2.41875,-23.53125
1763129345578,3.3511481,4.106084,7.911868,0.11300998,-0.23060146,0.016646065,0.12822509,-0.24480556,-0.40828606,-21.65625,0.65625,-24.656252
1763129345588,3.3511481,4.106084,7.911868,0.045814857,-0.16966769,0.042302385,0.12822509,-0.24480556,-0.40828606,-21.65625,0.65625,-24.656252
1763129345589,3.2991042,4.0594234,7.9154572,0.045814857,-0.16966769,0.042302385,0.12822509,-0.24480556,-0.40828606,-21.65625,0.65625,-24.656252
1763129345598,3.2991042,4.0594234,7.9154572,0.045814857,-0.16966769,0.042302385,0.1279088,-0.24662738,-0.40761214,-21.65625,0.65625,-24.656252
1763129345599,3.2991042,4.0594234,7.9154572,0.045814857,-0.16966769,0.042302385,0.1279088,-0.24662738,-0.40761214,-19.59375,3.54375,-23.75625
1763129345606,3.2991042,4.0594234,7.9154572,0.002290743,-0.21288638,0.058490302,0.1279088,-0.24662738,-0.40761214,-19.59375,3.54375,-23.75625
1763129345607,3.4390843,4.0163527,8.16431,0.002290743,-0.21288638,0.058490302,0.1279088,-0.24662738,-0.40761214,-19.59375,3.54375,-23.75625
1763129345622,3.4390843,4.0163527,8.16431,0.002290743,-0.21288638,0.058490302,0.12689243,-0.24869423,-0.40723795,-19.59375,3.54375,-23.75625
1763129345623,3.4390843,4.0163527,8.16431,0.002290743,-0.21288638,0.058490302,0.12689243,-0.24869423,-0.40723795,-22.5,0.3,-24.35625
1763129345628,3.4390843,4.0163527,8.16431,0.04612029,-0.2112065,0.017867794,0.12689243,-0.24869423,-0.40723795,-22.5,0.3,-24.35625
1763129345631,3.63051,4.0504503,8.236095,0.04612029,-0.2112065,0.017867794,0.12689243,-0.24869423,-0.40723795,-22.5,0.3,-24.35625
1763129345637,3.63051,4.0504503,8.236095,0.04612029,-0.2112065,0.017867794,0.12636192,-0.25085637,-0.40707105,-22.5,0.3,-24.35625
1763129345638,3.63051,4.0504503,8.236095,0.04612029,-0.2112065,0.017867794,0.12636192,-0.25085637,-0.40707105,-19.44375,2.625,-23.625
1763129345649,3.63051,4.0504503,8.236095,0.09590577,-0.12064579,-0.03604102,0.12636192,-0.25085637,-0.40707105,-19.44375,2.625,-23.625
1763129345649,3.6789649,4.150351,8.01117,0.09590577,-0.12064579,-0.03604102,0.12636192,-0.25085637,-0.40707105,-19.44375,2.625,-23.625
1763129345658,3.6789649,4.150351,8.01117,0.09590577,-0.12064579,-0.03604102,0.12636192,-0.25085637,-0.40707105,-21.4125,1.3687501,-23.118752
1763129345659,3.6789649,4.150351,8.01117,0.09590577,-0.12064579,-0.03604102,0.12677182,-0.25236842,-0.4072095,-21.4125,1.3687501,-23.118752
1763129345670,3.6789649,4.150351,8.01117,0.07513637,-0.0033597562,-0.04382955,0.12677182,-0.25236842,-0.4072095,-21.4125,1.3687501,-23.118752
1763129345671,3.4570305,4.133601,7.856833,0.07513637,-0.0033597562,-0.04382955,0.12677182,-0.25236842,-0.4072095,-21.4125,1.3687501,-23.118752
1763129345679,3.4570305,4.133601,7.856833,0.07513637,-0.0033597562,-0.04382955,0.12756135,-0.25274295,-0.40723598,-21.4125,1.3687501,-23.118752
1763129345680,3.4570305,4.133601,7.856833,0.07513637,-0.0033597562,-0.04382955,0.12756135,-0.25274295,-0.40723598,-20.75625,1.35,-25.031252
1763129345690,3.4570305,4.133601,7.856833,0.018784093,-0.04046979,-0.034819294,0.12756135,-0.25274295,-0.40723598,-20.75625,1.35,-25.031252
1763129345691,3.269792,4.089932,7.923234,0.018784093,-0.04046979,-0.034819294,0.12756135,-0.25274295,-0.40723598,-20.75625,1.35,-25.031252
1763129345697,3.269792,4.089932,7.923234,0.018784093,-0.04046979,-0.034819294,0.12770517,-0.25318626,-0.4073213,-20.75625,1.35,-25.031252
1763129345698,3.269792,4.089932,7.923234,0.018784093,-0.04046979,-0.034819294,0.12770517,-0.25318626,-0.4073213,-22.06875,1.5375,-24.112501
1763129345712,3.269792,4.089932,7.923234,0.0025961753,-0.108581215,-0.033902995,0.12770517,-0.25318626,-0.4073213,-22.06875,1.5375,-24.112501
1763129345713,3.3385859,4.1479583,8.177471,0.0025961753,-0.108581215,-0.033902995,0.12770517,-0.25318626,-0.4073213,-22.06875,1.5375,-24.112501
1763129345717,3.3385859,4.1479583,8.177471,0.0025961753,-0.108581215,-0.033902995,0.12738737,-0.25414452,-0.40764877,-22.06875,1.5375,-24.112501
1763129345718,3.3385859,4.1479583,8.177471,0.0025961753,-0.108581215,-0.033902995,0.12738737,-0.25414452,-0.40764877,-19.237501,2.98125,-24.4125
1763129345733,3.3385859,4.1479583,8.177471,0.060781047,-0.11209369,-0.04657844,0.12738737,-0.25414452,-0.40764877,-19.237501,2.98125,-24.4125
1763129345734,3.367898,4.2352962,8.185248,0.060781047,-0.11209369,-0.04657844,0.12738737,-0.25414452,-0.40764877,-19.237501,2.98125,-24.4125
1763129345738,3.367898,4.2352962,8.185248,0.060781047,-0.11209369,-0.04657844,0.12760407,-0.25534818,-0.40794772,-19.237501,2.98125,-24.4125
1763129345739,3.367898,4.2352962,8.185248,0.060781047,-0.11209369,-0.04657844,0.12760407,-0.25534818,-0.40794772,-20.325,2.41875,-23.0625
1763129345754,3.367898,4.2352962,8.185248,0.07620538,-0.060475614,-0.05177079,0.12760407,-0.25534818,-0.40794772,-20.325,2.41875,-23.0625
1763129345755,3.3690944,4.289733,7.9890366,0.07620538,-0.060475614,-0.05177079,0.12760407,-0.25534818,-0.40794772,-20.325,2.41875,-23.0625
1763129345759,3.3690944,4.289733,7.9890366,0.07620538,-0.060475614,-0.05177079,0.12760407,-0.25534818,-0.40794772,-20.456251,2.7,-25.7625
1763129345760,3.3690944,4.289733,7.9890366,0.07620538,-0.060475614,-0.05177079,0.1282092,-0.2561476,-0.40817302,-20.456251,2.7,-25.7625
1763129345775,3.3690944,4.289733,7.9890366,0.05177079,-0.030695954,-0.04367683,0.1282092,-0.2561476,-0.40817302,-20.456251,2.7,-25.7625
1763129345776,3.2973096,4.258028,7.958528,0.05177079,-0.030695954,-0.04367683,0.1282092,-0.2561476,-0.40817302,-20.456251,2.7,-25.7625
1763129345779,3.2973096,4.258028,7.958528,0.05177079,-0.030695954,-0.04367683,0.12873748,-0.25659803,-0.40828413,-20.456251,2.7,-25.7625
1763129345780,3.2973096,4.258028,7.958528,0.05177079,-0.030695954,-0.04367683,0.12873748,-0.25659803,-0.40828413,-21.84375,1.5937501,-22.6875
1763129345796,3.2973096,4.258028,7.958528,0.018784093,-0.0632245,-0.040011644,0.12873748,-0.25659803,-0.40828413,-21.84375,1.5937501,-22.6875
1763129345797,3.2560334,4.243671,8.000402,0.018784093,-0.0632245,-0.040011644,0.12873748,-0.25659803,-0.40828413,-21.84375,1.5937501,-22.6875
1763129345798,3.2560334,4.243671,8.000402,0.018784093,-0.0632245,-0.040011644,0.12878609,-0.25720817,-0.40861115,-21.84375,1.5937501,-22.6875
1763129345799,3.2560334,4.243671,8.000402,0.018784093,-0.0632245,-0.040011644,0.12878609,-0.25720817,-0.40861115,-22.29375,0.52500004,-23.456251
1763129345818,3.2560334,4.243671,8.000402,0.018784093,-0.0632245,-0.040011644,0.12881774,-0.25791112,-0.40880796,-22.29375,0.52500004,-23.456251
1763129345820,3.2560334,4.243671,8.000402,0.022907428,-0.07269291,-0.030237807,0.12881774,-0.25791112,-0.40880796,-22.29375,0.52500004,-23.456251
1763129345822,3.2560334,4.243671,8.000402,0.022907428,-0.07269291,-0.030237807,0.12881774,-0.25791112,-0.40880796,-21.16875,2.23125,-23.268751
1763129345823,3.3212378,4.2388854,8.085946,0.022907428,-0.07269291,-0.030237807,0.12881774,-0.25791112,-0.40880796,-21.16875,2.23125,-23.268751
1763129345838,3.3212378,4.2388854,8.085946,0.022907428,-0.07269291,-0.030237807,0.12882498,-0.25878698,-0.40898463,-21.16875,2.23125,-23.268751
1763129345839,3.3212378,4.2388854,8.085946,0.030237807,-0.08781181,-0.027030766,0.12882498,-0.25878698,-0.40898463,-21.16875,2.23125,-23.268751
1763129345840,3.3212378,4.2388854,8.085946,0.030237807,-0.08781181,-0.027030766,0.12882498,-0.25878698,-0.40898463,-22.5375,0.46875003,-23.8125
1763129345842,3.3643086,4.23051,8.105088,0.030237807,-0.08781181,-0.027030766,0.12882498,-0.25878698,-0.40898463,-22.5375,0.46875003,-23.8125
1763129345859,3.3643086,4.23051,8.105088,0.039553493,-0.11133011,-0.03604102,0.12882498,-0.25878698,-0.40898463,-22.5375,0.46875003,-23.8125
1763129345860,3.3643086,4.23051,8.105088,0.039553493,-0.11133011,-0.03604102,0.12882619,-0.25990638,-0.4092662,-22.5375,0.46875003,-23.8125
1763129345863,3.4887354,4.2335014,8.10808,0.039553493,-0.11133011,-0.03604102,0.12882619,-0.25990638,-0.4092662,-22.5375,0.46875003,-23.8125
1763129345865,3.4887354,4.2335014,8.10808,0.039553493,-0.11133011,-0.03604102,0.12882619,-0.25990638,-0.4092662,-22.10625,0.09375,-22.987501
1763129345878,3.4887354,4.2335014,8.10808,0.039553493,-0.11133011,-0.03604102,0.12882619,-0.25990638,-0.4092662,-20.2875,3.075,-23.23125
1763129345879,3.4887354,4.2335014,8.10808,0.057115857,-0.088269964,-0.057879437,0.12882619,-0.25990638,-0.4092662,-20.2875,3.075,-23.23125
1763129345880,3.4325042,4.3070807,8.060223,0.057115857,-0.088269964,-0.057879437,0.12882619,-0.25990638,-0.4092662,-20.2875,3.075,-23.23125
1763129345897,3.4325042,4.3070807,8.060223,0.057115857,-0.088269964,-0.057879437,0.12882619,-0.25990638,-0.4092662,-21.9375,0.75,-24.618752
1763129345901,3.4325042,4.3070807,8.060223,0.04734202,-0.09468404,-0.04016436,0.12882619,-0.25990638,-0.4092662,-21.9375,0.75,-24.618752
1763129345902,3.4325042,4.3070807,8.060223,0.04734202,-0.09468404,-0.04016436,0.12904428,-0.26098627,-0.40949804,-21.9375,0.75,-24.618752
1763129345903,3.4325042,4.3070807,8.060223,0.04734202,-0.09468404,-0.04016436,0.12925959,-0.26207045,-0.4096403,-21.9375,0.75,-24.618752
1763129345904,3.397808,4.331009,7.9573317,0.04734202,-0.09468404,-0.04016436,0.12925959,-0.26207045,-0.4096403,-21.9375,0.75,-24.618752
1763129345918,3.397808,4.331009,7.9573317,0.04734202,-0.09468404,-0.04016436,0.12925959,-0.26207045,-0.4096403,-22.5375,0.46875003,-23.5125
1763129345921,3.397808,4.331009,7.9573317,0.032681264,-0.107817635,-0.017715078,0.12925959,-0.26207045,-0.4096403,-22.5375,0.46875003,-23.5125
1763129345922,3.4025939,4.295715,8.050652,0.032681264,-0.107817635,-0.017715078,0.12925959,-0.26207045,-0.4096403,-22.5375,0.46875003,-23.5125
1763129345923,3.4025939,4.295715,8.050652,0.032681264,-0.107817635,-0.017715078,0.12937495,-0.26322913,-0.40948385,-22.5375,0.46875003,-23.5125
1763129345939,3.4025939,4.295715,8.050652,0.032681264,-0.107817635,-0.017715078,0.12937495,-0.26322913,-0.40948385,-21.73125,2.5687501,-23.831251
1763129345943,3.4025939,4.295715,8.050652,0.076358095,-0.17684536,-0.009468404,0.12937495,-0.26322913,-0.40948385,-21.73125,2.5687501,-23.831251
1763129345944,3.4025939,4.295715,8.050652,0.076358095,-0.17684536,-0.009468404,0.12935928,-0.26511192,-0.40960374,-21.73125,2.5687501,-23.831251
1763129345945,3.37388,4.284349,8.445468,0.076358095,-0.17684536,-0.009468404,0.12935928,-0.26511192,-0.40960374,-21.73125,2.5687501,-23.831251
1763129345957,3.37388,4.284349,8.445468,0.076358095,-0.17684536,-0.009468404,0.12935928,-0.26511192,-0.40960374,-21.0,1.95,-23.4375
1763129345963,3.37388,4.284349,8.445468,0.23029602,-0.024281874,0.012064579,0.12935928,-0.26511192,-0.40960374,-21.0,1.95,-23.4375
1763129345964,3.37388,4.284349,8.445468,0.23029602,-0.024281874,0.012064579,0.13095954,-0.26596642,-0.4094697,-21.0,1.95,-23.4375
1763129345964,3.667599,4.5355954,8.158329,0.23029602,-0.024281874,0.012064579,0.13095954,-0.26596642,-0.4094697,-21.0,1.95,-23.4375
1763129345978,3.667599,4.5355954,8.158329,0.23029602,-0.024281874,0.012064579,0.13095954,-0.26596642,-0.4094697,-21.6,1.8000001,-23.8875
1763129345985,3.5288153,4.368098,7.537391,0.23029602,-0.024281874,0.012064579,0.13095954,-0.26596642,-0.4094697,-21.6,1.8000001,-23.8875
1763129345990,3.5288153,4.368098,7.537391,0.23182319,0.24572036,0.03084867,0.13095954,-0.26596642,-0.4094697,-21.6,1.8000001,-23.8875
1763129345991,3.5288153,4.368098,7.537391,0.23182319,0.24572036,0.03084867,0.13413802,-0.2650529,-0.40764567,-21.6,1.8000001,-23.8875
1763129345998,3.5288153,4.368098,7.537391,0.23182319,0.24572036,0.03084867,0.13413802,-0.2650529,-0.40764567,-20.6625,2.34375,-24.35625
1763129346005,3.5288153,4.368098,7.537391,0.0971275,0.18661919,0.028405212,0.13413802,-0.2650529,-0.40764567,-20.6625,2.34375,-24.35625
1763129346005,3.3565319,4.188636,7.157531,0.0971275,0.18661919,0.028405212,0.13413802,-0.2650529,-0.40764567,-20.6625,2.34375,-24.35625
1763129346021,3.3565319,4.188636,7.157531,0.0971275,0.18661919,0.028405212,0.13610627,-0.26427928,-0.40573525,-20.6625,2.34375,-24.35625
1763129346022,3.3565319,4.188636,7.157531,0.0971275,0.18661919,0.028405212,0.13610627,-0.26427928,-0.40573525,-21.862501,1.7437501,-22.893751
1763129346029,3.3565319,4.188636,7.157531,-0.10583232,0.09422589,0.021532983,0.13610627,-0.26427928,-0.40573525,-21.862501,1.7437501,-22.893751
1763129346030,3.5635111,4.286144,7.573882,-0.10583232,0.09422589,0.021532983,0.13610627,-0.26427928,-0.40573525,-21.862501,1.7437501,-22.893751
1763129346037,3.5635111,4.286144,7.573882,-0.10583232,0.09422589,0.021532983,0.13593508,-0.26347715,-0.40454522,-21.862501,1.7437501,-22.893751
1763129346038,3.5635111,4.286144,7.573882,-0.10583232,0.09422589,0.021532983,0.13593508,-0.26347715,-0.40454522,-21.806252,-0.16875,-23.41875
1763129346047,3.5635111,4.286144,7.573882,-0.12935062,0.018173227,-0.027947064,0.13593508,-0.26347715,-0.40454522,-21.806252,-0.16875,-23.41875
1763129346048,3.6209388,4.2245283,7.9854474,-0.12935062,0.018173227,-0.027947064,0.13593508,-0.26347715,-0.40454522,-21.806252,-0.16875,-23.41875
1763129346057,3.6209388,4.2245283,7.9854474,-0.12935062,0.018173227,-0.027947064,0.13513091,-0.2632107,-0.40412235,-21.806252,-0.16875,-23.41875
1763129346058,3.6209388,4.2245283,7.9854474,-0.12935062,0.018173227,-0.027947064,0.13513091,-0.2632107,-0.40412235,-20.118752,2.79375,-22.800001
1763129346068,3.6209388,4.2245283,7.9854474,-0.09269873,-0.085215636,-0.08842268,0.13513091,-0.2632107,-0.40412235,-20.118752,2.79375,-22.800001
1763129346070,3.3804603,4.253242,7.9920278,-0.09269873,-0.085215636,-0.08842268,0.13513091,-0.2632107,-0.40412235,-20.118752,2.79375,-22.800001
1763129346079,3.3804603,4.253242,7.9920278,-0.09269873,-0.085215636,-0.08842268,0.1339562,-0.26371425,-0.4048024,-20.118752,2.79375,-22.800001
1763129346080,3.3804603,4.253242,7.9920278,-0.09269873,-0.085215636,-0.08842268,0.1339562,-0.26371425,-0.4048024,-22.143751,0.39375,-24.281252
1763129346089,3.3804603,4.253242,7.9920278,-0.10644319,-0.13698642,-0.058032155,0.1339562,-0.26371425,-0.4048024,-22.143751,0.39375,-24.281252
1763129346089,3.2554352,4.343571,7.8831544,-0.10644319,-0.13698642,-0.058032155,0.1339562,-0.26371425,-0.4048024,-22.143751,0.39375,-24.281252
1763129346113,3.2554352,4.343571,7.8831544,-0.10644319,-0.13698642,-0.058032155,0.13250674,-0.26439255,-0.4058229,-22.143751,0.39375,-24.281252
1763129346114,3.2554352,4.343571,7.8831544,-0.10644319,-0.13698642,-0.058032155,0.13250674,-0.26439255,-0.4058229,-20.94375,2.5875,-25.875002
1763129346116,3.2554352,4.343571,7.8831544,-0.16203189,0.1065959,0.017867794,0.13250674,-0.26439255,-0.4058229,-20.94375,2.5875,-25.875002
1763129346116,3.1441689,4.5158544,7.768897,-0.16203189,0.1065959,0.017867794,0.13250674,-0.26439255,-0.4058229,-20.94375,2.5875,-25.875002
1763129346117,3.1441689,4.5158544,7.768897,-0.16203189,0.1065959,0.017867794,0.13173974,-0.2627218,-0.4058348,-20.94375,2.5875,-25.875002
1763129346118,3.1441689,4.5158544,7.768897,-0.16203189,0.1065959,0.017867794,0.13173974,-0.2627218,-0.4058348,-21.375,2.6625001,-22.987501
