timestamp,accX,accY,accZ,gyroX,gyroY,gyroZ,rotX,rotY,rotZ,magX,magY,magZ
1763129264831,-4.822734,7.63789,2.4759731,-0.3500255,-1.6824744,-0.021380268,0.48835143,-0.2193748,-0.6563057,22.40625,-28.893751,-27.656252
1763129264832,-4.7916274,7.4787674,2.3688943,-0.3500255,-1.6824744,-0.021380268,0.48835143,-0.2193748,-0.6563057,22.40625,-28.893751,-27.656252
1763129264837,-4.7916274,7.4787674,2.3688943,-0.3500255,-1.6824744,-0.021380268,0.475584,-0.22541077,-0.6647895,22.40625,-28.893751,-27.656252
1763129264838,-4.7916274,7.4787674,2.3688943,-0.3500255,-1.6824744,-0.021380268,0.475584,-0.22541077,-0.6647895,18.993752,-30.806252,-27.093752
1763129264852,-4.7916274,7.4787674,2.3688943,-0.5879573,-2.1080945,0.074830934,0.475584,-0.22541077,-0.6647895,18.993752,-30.806252,-27.093752
1763129264852,-3.9212382,7.993822,3.4037902,-0.5879573,-2.1080945,0.074830934,0.475584,-0.22541077,-0.6647895,18.993752,-30.806252,-27.093752
1763129264857,-3.9212382,7.993822,3.4037902,-0.5879573,-2.1080945,0.074830934,0.4582663,-0.23245198,-0.6749907,18.993752,-30.806252,-27.093752
1763129264858,-3.9212382,7.993822,3.4037902,-0.5879573,-2.1080945,0.074830934,0.4582663,-0.23245198,-0.6749907,15.431251,-30.31875,-23.737501
1763129264873,-3.2620156,7.5774713,3.9308095,-0.5879573,-2.1080945,0.074830934,0.4582663,-0.23245198,-0.6749907,15.431251,-30.31875,-23.737501
1763129264873,-3.2620156,7.5774713,3.9308095,-0.7686206,-2.590983,0.08170316,0.4582663,-0.23245198,-0.6749907,15.431251,-30.31875,-23.737501
1763129264878,-3.2620156,7.5774713,3.9308095,-0.7686206,-2.590983,0.08170316,0.43597358,-0.2411196,-0.68766403,15.431251,-30.31875,-23.737501
1763129264879,-3.2620156,7.5774713,3.9308095,-0.7686206,-2.590983,0.08170316,0.43597358,-0.2411196,-0.68766403,17.5125,-27.937502,-26.625002
1763129264893,-3.2620156,7.5774713,3.9308095,-0.9437861,-3.2365143,0.05650499,0.43597358,-0.2411196,-0.68766403,17.5125,-27.937502,-26.625002
1763129264894,-2.894119,7.405188,3.03051,-0.9437861,-3.2365143,0.05650499,0.43597358,-0.2411196,-0.68766403,17.5125,-27.937502,-26.625002
1763129264898,-2.894119,7.405188,3.03051,-0.9437861,-3.2365143,0.05650499,0.40752286,-0.25196034,-0.7033966,17.5125,-27.937502,-26.625002
1763129264899,-2.894119,7.405188,3.03051,-0.9437861,-3.2365143,0.05650499,0.40752286,-0.25196034,-0.7033966,8.55,-35.11875,-23.8875
1763129264914,-2.5794628,7.908877,5.391628,-0.9437861,-3.2365143,0.05650499,0.40752286,-0.25196034,-0.7033966,8.55,-35.11875,-23.8875
1763129264915,-2.5794628,7.908877,5.391628,-1.1954623,-3.6931357,0.026419902,0.40752286,-0.25196034,-0.7033966,8.55,-35.11875,-23.8875
1763129264917,-2.5794628,7.908877,5.391628,-1.1954623,-3.6931357,0.026419902,0.37431297,-0.26276368,-0.72026145,8.55,-35.11875,-23.8875
1763129264918,-2.5794628,7.908877,5.391628,-1.1954623,-3.6931357,0.026419902,0.37431297,-0.26276368,-0.72026145,8.868751,-28.031252,-28.85625
1763129264936,-2.5794628,7.908877,5.391628,-1.0622939,-2.7162101,0.0035124724,0.37431297,-0.26276368,-0.72026145,8.868751,-28.031252,-28.85625
1763129264937,-1.6857436,8.1230345,8.434102,-1.0622939,-2.7162101,0.0035124724,0.37431297,-0.26276368,-0.72026145,8.868751,-28.031252,-28.85625
1763129264938,-1.6857436,8.1230345,8.434102,-1.0622939,-2.7162101,0.0035124724,0.34819666,-0.2692722,-0.7329863,8.868751,-28.031252,-28.85625
1763129264939,-1.6857436,8.1230345,8.434102,-1.0622939,-2.7162101,0.0035124724,0.34819666,-0.2692722,-0.7329863,8.25,-28.1625,-28.5375
1763129264957,-1.6857436,8.1230345,8.434102,-1.0622939,-2.7162101,0.0035124724,0.33339974,-0.2742846,-0.7404943,8.25,-28.1625,-28.5375
1763129264958,-1.2143575,7.472187,9.183653,-1.0622939,-2.7162101,0.0035124724,0.33339974,-0.2742846,-0.7404943,8.25,-28.1625,-28.5375
1763129264959,-1.2143575,7.472187,9.183653,-0.456316,-1.4972296,0.0018325944,0.33339974,-0.2742846,-0.7404943,8.25,-28.1625,-28.5375
1763129264960,-1.2143575,7.472187,9.183653,-0.456316,-1.4972296,0.0018325944,0.33339974,-0.2742846,-0.7404943,7.3875003,-28.368752,-29.493752
1763129264979,-0.64606214,6.122635,7.015756,-0.456316,-1.4972296,0.0018325944,0.33339974,-0.2742846,-0.7404943,7.3875003,-28.368752,-29.493752
1763129264980,-0.64606214,6.122635,7.015756,-0.049480047,-1.0155627,0.029474225,0.33339974,-0.2742846,-0.7404943,7.3875003,-28.368752,-29.493752
1763129264981,-0.64606214,6.122635,7.015756,-0.049480047,-1.0155627,0.029474225,0.32390696,-0.28007367,-0.74544525,7.3875003,-28.368752,-29.493752
1763129264983,-0.64606214,6.122635,7.015756,-0.049480047,-1.0155627,0.029474225,0.32390696,-0.28007367,-0.74544525,7.2000003,-27.281252,-28.331251
1763129264998,-0.64606214,6.122635,7.015756,-0.049480047,-1.0155627,0.029474225,0.3143669,-0.28395954,-0.7507219,7.2000003,-27.281252,-28.331251
1763129264999,-0.64606214,6.122635,7.015756,-0.20631959,-0.9947933,-0.075594515,0.3143669,-0.28395954,-0.7507219,7.2000003,-27.281252,-28.331251
1763129265000,-1.1820544,6.2751775,5.988637,-0.20631959,-0.9947933,-0.075594515,0.3143669,-0.28395954,-0.7507219,7.2000003,-27.281252,-28.331251
1763129265001,-1.1820544,6.2751775,5.988637,-0.20631959,-0.9947933,-0.075594515,0.3143669,-0.28395954,-0.7507219,5.4,-27.88125,-30.375002
1763129265018,-1.1820544,6.2751775,5.988637,-0.20631959,-0.9947933,-0.075594515,0.3143669,-0.28395954,-0.7507219,5.3812504,-27.73125,-30.2625
1763129265021,-1.1820544,6.2751775,5.988637,-0.4922043,-0.9434807,0.010537418,0.3143669,-0.28395954,-0.7507219,5.3812504,-27.73125,-30.2625
1763129265022,-1.1820544,6.2751775,5.988637,-0.4922043,-0.9434807,0.010537418,0.3040333,-0.28523317,-0.7554404,5.3812504,-27.73125,-30.2625
1763129265023,-2.3623142,7.359126,5.7379885,-0.4922043,-0.9434807,0.010537418,0.3040333,-0.28523317,-0.7554404,5.3812504,-27.73125,-30.2625
1763129265038,-2.3623142,7.359126,5.7379885,-0.4922043,-0.9434807,0.010537418,0.3040333,-0.28523317,-0.7554404,3.6750002,-28.275002,-29.718752
1763129265041,-2.3623142,7.359126,5.7379885,-0.4922043,-0.9434807,0.010537418,0.2927014,-0.28531924,-0.7592329,3.6750002,-28.275002,-29.718752
1763129265042,-2.3623142,7.359126,5.7379885,-0.6717985,-0.991739,0.14691298,0.2927014,-0.28531924,-0.7592329,3.6750002,-28.275002,-29.718752
1763129265042,-1.9369899,7.583453,6.442675,-0.6717985,-0.991739,0.14691298,0.2927014,-0.28531924,-0.7592329,3.6750002,-28.275002,-29.718752
1763129265058,-1.9369899,7.583453,6.442675,-0.6717985,-0.991739,0.14691298,0.2927014,-0.28531924,-0.7592329,4.65,-27.093752,-31.406252
1763129265063,-1.9369899,7.583453,6.442675,-0.74357516,-0.82573646,0.102014415,0.2927014,-0.28531924,-0.7592329,4.65,-27.093752,-31.406252
1763129265064,-1.9369899,7.583453,6.442675,-0.74357516,-0.82573646,0.102014415,0.28220826,-0.28390735,-0.76302713,4.65,-27.093752,-31.406252
1763129265065,-1.125823,7.492526,7.8113694,-0.74357516,-0.82573646,0.102014415,0.28220826,-0.28390735,-0.76302713,4.65,-27.093752,-31.406252
1763129265078,-1.125823,7.492526,7.8113694,-0.74357516,-0.82573646,0.102014415,0.28220826,-0.28390735,-0.76302713,0.69375,-27.337502,-28.275002
1763129265082,-1.125823,7.492526,7.8113694,-0.5508473,-0.4893027,-0.002290743,0.28220826,-0.28390735,-0.76302713,0.69375,-27.337502,-28.275002
1763129265082,-1.125823,7.492526,7.8113694,-0.5508473,-0.4893027,-0.002290743,0.27508655,-0.2822042,-0.76639175,0.69375,-27.337502,-28.275002
1763129265083,-1.032503,7.428518,8.567501,-0.5508473,-0.4893027,-0.002290743,0.27508655,-0.2822042,-0.76639175,0.69375,-27.337502,-28.275002
1763129265098,-1.032503,7.428518,8.567501,-0.5508473,-0.4893027,-0.002290743,0.27508655,-0.2822042,-0.76639175,-0.4875,-29.531252,-27.281252
1763129265104,-1.032503,7.428518,8.567501,-0.21197008,-0.33628106,-0.110108376,0.27508655,-0.2822042,-0.76639175,-0.4875,-29.531252,-27.281252
1763129265105,-1.032503,7.428518,8.567501,-0.21197008,-0.33628106,-0.110108376,0.27105403,-0.28215516,-0.7691765,-0.4875,-29.531252,-27.281252
1763129265106,-1.1772687,7.1413794,7.7940216,-0.21197008,-0.33628106,-0.110108376,0.27105403,-0.28215516,-0.7691765,-0.4875,-29.531252,-27.281252
1763129265117,-1.1772687,7.1413794,7.7940216,-0.21197008,-0.33628106,-0.110108376,0.27105403,-0.28215516,-0.7691765,1.8750001,-28.2,-29.212502
1763129265124,-1.1772687,7.1413794,7.7940216,-0.21197008,-0.33628106,-0.110108376,0.26842076,-0.28349432,-0.7715662,1.8750001,-28.2,-29.212502
1763129265125,-1.3411771,6.984051,7.5230346,-0.21197008,-0.33628106,-0.110108376,0.26842076,-0.28349432,-0.7715662,1.8750001,-28.2,-29.212502
1763129265127,-1.3411771,6.984051,7.5230346,-0.009926553,-0.35338527,-0.19074252,0.26842076,-0.28349432,-0.7715662,1.8750001,-28.2,-29.212502
1763129265138,-1.3411771,6.984051,7.5230346,-0.009926553,-0.35338527,-0.19074252,0.26842076,-0.28349432,-0.7715662,2.1937501,-27.018751,-30.187502
1763129265146,-1.3411771,6.984051,7.5230346,0.15851942,-0.16157374,-0.21441354,0.26842076,-0.28349432,-0.7715662,2.1937501,-27.018751,-30.187502
1763129265147,-1.338186,7.1210403,8.146963,0.15851942,-0.16157374,-0.21441354,0.26842076,-0.28349432,-0.7715662,2.1937501,-27.018751,-30.187502
1763129265158,-1.338186,7.1210403,8.146963,0.15851942,-0.16157374,-0.21441354,0.26837602,-0.28506288,-0.7729624,2.1937501,-27.018751,-30.187502
1763129265159,-1.338186,7.1210403,8.146963,0.15851942,-0.16157374,-0.21441354,0.26837602,-0.28506288,-0.7729624,1.1812501,-28.031252,-28.3875
1763129265166,-1.338186,7.1210403,8.146963,0.27046037,-0.18600832,-0.2197586,0.26837602,-0.28506288,-0.7729624,1.1812501,-28.031252,-28.3875
1763129265167,-1.0271192,6.663413,6.276972,0.27046037,-0.18600832,-0.2197586,0.26837602,-0.28506288,-0.7729624,1.1812501,-28.031252,-28.3875
1763129265179,-1.0271192,6.663413,6.276972,0.27046037,-0.18600832,-0.2197586,0.26837602,-0.28506288,-0.7729624,3.525,-27.337502,-29.400002
1763129265181,-1.0271192,6.663413,6.276972,0.27046037,-0.18600832,-0.2197586,0.2685402,-0.28769457,-0.7743476,3.525,-27.337502,-29.400002
1763129265188,-1.0271192,6.663413,6.276972,0.1311832,-0.6789762,-0.29947644,0.2685402,-0.28769457,-0.7743476,3.525,-27.337502,-29.400002
1763129265189,-1.3046865,7.0761747,5.3706903,0.1311832,-0.6789762,-0.29947644,0.2685402,-0.28769457,-0.7743476,3.525,-27.337502,-29.400002
1763129265197,-1.3046865,7.0761747,5.3706903,0.1311832,-0.6789762,-0.29947644,0.2685402,-0.28769457,-0.7743476,2.7562501,-26.550001,-29.38125
1763129265198,-1.3046865,7.0761747,5.3706903,0.1311832,-0.6789762,-0.29947644,0.26461363,-0.2914583,-0.777349,2.7562501,-26.550001,-29.38125
1763129265208,-1.3046865,7.0761747,5.3706903,-0.123547405,-0.9450078,-0.27382013,0.26461363,-0.2914583,-0.777349,2.7562501,-26.550001,-29.38125
1763129265209,-1.3746766,7.2646093,5.305486,-0.123547405,-0.9450078,-0.27382013,0.26461363,-0.2914583,-0.777349,2.7562501,-26.550001,-29.38125
1763129265218,-1.3746766,7.2646093,5.305486,-0.123547405,-0.9450078,-0.27382013,0.257639,-0.2944118,-0.781062,2.7562501,-26.550001,-29.38125
1763129265219,-1.3746766,7.2646093,5.305486,-0.123547405,-0.9450078,-0.27382013,0.257639,-0.2944118,-0.781062,0.31875002,-28.893751,-29.625002
1763129265230,-1.3746766,7.2646093,5.305486,-0.40088,-1.2899936,-0.1800524,0.257639,-0.2944118,-0.781062,0.31875002,-28.893751,-29.625002
1763129265230,-1.1425728,6.263213,5.793622,-0.40088,-1.2899936,-0.1800524,0.257639,-0.2944118,-0.781062,0.31875002,-28.893751,-29.625002
1763129265238,-1.1425728,6.263213,5.793622,-0.40088,-1.2899936,-0.1800524,0.24627268,-0.2970259,-0.7857965,0.31875002,-28.893751,-29.625002
1763129265239,-1.1425728,6.263213,5.793622,-0.40088,-1.2899936,-0.1800524,0.24627268,-0.2970259,-0.7857965,0.24375,-27.618752,-28.931252
1763129265250,-1.1425728,6.263213,5.793622,-0.6798925,-0.9364557,-0.072540194,0.24627268,-0.2970259,-0.7857965,0.24375,-27.618752,-28.931252
1763129265251,-1.3172488,6.7351975,7.600801,-0.6798925,-0.9364557,-0.072540194,0.24627268,-0.2970259,-0.7857965,0.24375,-27.618752,-28.931252
1763129265258,-1.3172488,6.7351975,7.600801,-0.6798925,-0.9364557,-0.072540194,0.23562664,-0.29585117,-0.7903376,0.24375,-27.618752,-28.931252
1763129265259,-1.3172488,6.7351975,7.600801,-0.6798925,-0.9364557,-0.072540194,0.23562664,-0.29585117,-0.7903376,-0.80625004,-27.54375,-28.518751
1763129265272,-1.3172488,6.7351975,7.600801,-0.51343185,-0.5508473,-0.058490302,0.23562664,-0.29585117,-0.7903376,-0.80625004,-27.54375,-28.518751
1763129265273,-0.70169526,6.734599,6.998408,-0.51343185,-0.5508473,-0.058490302,0.23562664,-0.29585117,-0.7903376,-0.80625004,-27.54375,-28.518751
1763129265277,-0.70169526,6.734599,6.998408,-0.51343185,-0.5508473,-0.058490302,0.23562664,-0.29585117,-0.7903376,0.13125001,-25.5375,-28.143751
1763129265278,-0.70169526,6.734599,6.998408,-0.51343185,-0.5508473,-0.058490302,0.22865628,-0.29411358,-0.7936704,0.13125001,-25.5375,-28.143751
1763129265292,-0.70169526,6.734599,6.998408,-0.3167334,-0.8365793,-0.16294818,0.22865628,-0.29411358,-0.7936704,0.13125001,-25.5375,-28.143751
1763129265293,-0.7722835,6.4235325,6.431907,-0.3167334,-0.8365793,-0.16294818,0.22865628,-0.29411358,-0.7936704,0.13125001,-25.5375,-28.143751
1763129265298,-0.7722835,6.4235325,6.431907,-0.3167334,-0.8365793,-0.16294818,0.22064145,-0.29528916,-0.7973644,0.13125001,-25.5375,-28.143751
1763129265299,-0.7722835,6.4235325,6.431907,-0.3167334,-0.8365793,-0.16294818,0.22064145,-0.29528916,-0.7973644,0.13125001,-26.19375,-28.593752
1763129265313,-1.0671989,6.5371914,6.502496,-0.3167334,-0.8365793,-0.16294818,0.22064145,-0.29528916,-0.7973644,0.13125001,-26.19375,-28.593752
1763129265314,-1.0671989,6.5371914,6.502496,-0.23350306,-1.0241148,-0.11530073,0.22064145,-0.29528916,-0.7973644,0.13125001,-26.19375,-28.593752
1763129265318,-1.0671989,6.5371914,6.502496,-0.23350306,-1.0241148,-0.11530073,0.21147339,-0.2981278,-0.8007566,0.13125001,-26.19375,-28.593752
1763129265319,-1.0671989,6.5371914,6.502496,-0.23350306,-1.0241148,-0.11530073,0.21147339,-0.2981278,-0.8007566,-2.3812501,-27.2625,-28.44375
1763129265334,-1.0671989,6.5371914,6.502496,-0.28787002,-0.9918917,-0.02611447,0.21147339,-0.2981278,-0.8007566,-2.3812501,-27.2625,-28.44375
1763129265335,-0.73579293,6.259624,6.7609205,-0.28787002,-0.9918917,-0.02611447,0.21147339,-0.2981278,-0.8007566,-2.3812501,-27.2625,-28.44375
1763129265339,-0.73579293,6.259624,6.7609205,-0.28787002,-0.9918917,-0.02611447,0.20219222,-0.30042428,-0.80358225,-2.3812501,-27.2625,-28.44375
1763129265340,-0.73579293,6.259624,6.7609205,-0.28787002,-0.9918917,-0.02611447,0.20219222,-0.30042428,-0.80358225,-4.6312504,-29.212502,-27.375002
1763129265355,-0.73579293,6.259624,6.7609205,-0.5584831,-0.70799226,0.050396346,0.20219222,-0.30042428,-0.80358225,-4.6312504,-29.212502,-27.375002
1763129265357,-0.58265233,5.834898,7.0097737,-0.5584831,-0.70799226,0.050396346,0.20219222,-0.30042428,-0.80358225,-4.6312504,-29.212502,-27.375002
1763129265358,-0.58265233,5.834898,7.0097737,-0.5584831,-0.70799226,0.050396346,0.1935196,-0.299218,-0.8063841,-4.6312504,-29.212502,-27.375002
1763129265359,-0.58265233,5.834898,7.0097737,-0.5584831,-0.70799226,0.050396346,0.1935196,-0.299218,-0.8063841,-5.08125,-27.900002,-29.531252
1763129265376,-0.58265233,5.834898,7.0097737,-0.84085536,-0.42577276,0.21930045,0.1935196,-0.299218,-0.8063841,-5.08125,-27.900002,-29.531252
1763129265378,-0.587438,5.7080784,7.411768,-0.84085536,-0.42577276,0.21930045,0.1935196,-0.299218,-0.8063841,-5.08125,-27.900002,-29.531252
1763129265380,-0.587438,5.7080784,7.411768,-0.84085536,-0.42577276,0.21930045,0.18513745,-0.29454443,-0.80876327,-5.08125,-27.900002,-29.531252
1763129265381,-0.587438,5.7080784,7.411768,-0.84085536,-0.42577276,0.21930045,0.18513745,-0.29454443,-0.80876327,-3.0375001,-27.243752,-27.73125
1763129265398,-0.37208393,5.9934225,8.018947,-0.84085536,-0.42577276,0.21930045,0.18513745,-0.29454443,-0.80876327,-3.0375001,-27.243752,-27.73125
1763129265399,-0.37208393,5.9934225,8.018947,-0.82283485,-0.3686569,0.35460702,0.18513745,-0.29454443,-0.80876327,-3.0375001,-27.243752,-27.73125
1763129265401,-0.37208393,5.9934225,8.018947,-0.82283485,-0.3686569,0.35460702,0.17685097,-0.28994527,-0.810295,-3.0375001,-27.243752,-27.73125
1763129265402,-0.37208393,5.9934225,8.018947,-0.82283485,-0.3686569,0.35460702,0.17685097,-0.28994527,-0.810295,-4.0125003,-25.06875,-29.19375
1763129265419,-0.37208393,5.9934225,8.018947,-0.82283485,-0.3686569,0.35460702,0.16965099,-0.28790322,-0.8111272,-4.0125003,-25.06875,-29.19375
1763129265420,-0.37208393,5.9934225,8.018947,-0.5395463,-0.40698865,0.33246315,0.16965099,-0.28790322,-0.8111272,-4.0125003,-25.06875,-29.19375
1763129265422,-0.12622139,6.114858,8.529217,-0.5395463,-0.40698865,0.33246315,0.16965099,-0.28790322,-0.8111272,-4.0125003,-25.06875,-29.19375
1763129265424,-0.12622139,6.114858,8.529217,-0.5395463,-0.40698865,0.33246315,0.16965099,-0.28790322,-0.8111272,-4.6687503,-26.6625,-27.16875
1763129265438,-0.12622139,6.114858,8.529217,-0.5395463,-0.40698865,0.33246315,0.16965099,-0.28790322,-0.8111272,-5.90625,-26.94375,-27.750002
1763129265439,-0.12622139,6.114858,8.529217,-0.5395463,-0.40698865,0.33246315,0.1647152,-0.2877794,-0.81146413,-5.90625,-26.94375,-27.750002
1763129265440,-0.12622139,6.114858,8.529217,-0.25030184,-0.3280344,0.24572036,0.1647152,-0.2877794,-0.81146413,-5.90625,-26.94375,-27.750002
1763129265441,-0.07298109,6.0550375,8.758927,-0.25030184,-0.3280344,0.24572036,0.1647152,-0.2877794,-0.81146413,-5.90625,-26.94375,-27.750002
1763129265458,-0.07298109,6.0550375,8.758927,-0.25030184,-0.3280344,0.24572036,0.1647152,-0.2877794,-0.81146413,-6.7312503,-26.325,-27.431252
1763129265462,-0.0035892338,6.2033925,8.30788,-0.25030184,-0.3280344,0.24572036,0.1647152,-0.2877794,-0.81146413,-6.7312503,-26.325,-27.431252
1763129265463,-0.0035892338,6.2033925,8.30788,-0.08078687,-0.13698642,0.20021093,0.1647152,-0.2877794,-0.81146413,-6.7312503,-26.325,-27.431252
1763129265464,-0.0035892338,6.2033925,8.30788,-0.08078687,-0.13698642,0.20021093,0.1623322,-0.28803802,-0.81126285,-6.7312503,-26.325,-27.431252
1763129265479,-0.0035892338,6.2033925,8.30788,-0.08078687,-0.13698642,0.20021093,0.1623322,-0.28803802,-0.81126285,-8.325001,-25.9125,-28.0125
1763129265481,-0.0035892338,6.2033925,8.30788,-0.08078687,-0.13698642,0.20021093,0.1613358,-0.28830513,-0.8105772,-8.325001,-25.9125,-28.0125
1763129265482,-0.0035892338,6.2033925,8.30788,-0.01847866,-0.03329213,0.1838703,0.1613358,-0.28830513,-0.8105772,-8.325001,-25.9125,-28.0125
1763129265484,0.2620141,6.3948183,8.012965,-0.01847866,-0.03329213,0.1838703,0.1613358,-0.28830513,-0.8105772,-8.325001,-25.9125,-28.0125
1763129265499,0.2620141,6.3948183,8.012965,-0.01847866,-0.03329213,0.1838703,0.1613358,-0.28830513,-0.8105772,-9.712501,-28.312502,-28.687502
1763129265505,0.2620141,6.3948183,8.012965,-0.01847866,-0.03329213,0.1838703,0.16112816,-0.28770578,-0.8098241,-9.712501,-28.312502,-28.687502
1763129265506,0.2620141,6.3948183,8.012965,-0.06139191,0.07223476,0.16187917,0.16112816,-0.28770578,-0.8098241,-9.712501,-28.312502,-28.687502
1763129265507,0.31585258,6.2751775,7.920243,-0.06139191,0.07223476,0.16187917,0.16112816,-0.28770578,-0.8098241,-9.712501,-28.312502,-28.687502
1763129265517,0.31585258,6.2751775,7.920243,-0.06139191,0.07223476,0.16187917,0.16112816,-0.28770578,-0.8098241,-8.212501,-28.125002,-28.44375
1763129265523,0.31585258,6.2751775,7.920243,-0.06139191,0.07223476,0.16187917,0.16141488,-0.28608066,-0.80914307,-8.212501,-28.125002,-28.44375
1763129265523,0.23090738,6.3014984,7.764111,-0.06139191,0.07223476,0.16187917,0.16141488,-0.28608066,-0.80914307,-8.212501,-28.125002,-28.44375
1763129265524,0.23090738,6.3014984,7.764111,-0.12415826,0.16875139,0.15531237,0.16141488,-0.28608066,-0.80914307,-8.212501,-28.125002,-28.44375
1763129265538,0.23090738,6.3014984,7.764111,-0.12415826,0.16875139,0.15531237,0.16141488,-0.28608066,-0.80914307,-7.9500003,-25.968752,-26.962502
1763129265545,0.23090738,6.3014984,7.764111,-0.12415826,0.16875139,0.15531237,0.1615957,-0.28496784,-0.8084815,-7.9500003,-25.968752,-26.962502
1763129265546,0.23090738,6.3014984,7.764111,-0.089033544,0.116675176,0.1301142,0.1615957,-0.28496784,-0.8084815,-7.9500003,-25.968752,-26.962502
1763129265547,0.3696911,6.4289165,7.5625157,-0.089033544,0.116675176,0.1301142,0.1615957,-0.28496784,-0.8084815,-7.9500003,-25.968752,-26.962502
1763129265558,0.3696911,6.4289165,7.5625157,-0.089033544,0.116675176,0.1301142,0.1615957,-0.28496784,-0.8084815,-6.95625,-26.400002,-29.2875
1763129265565,0.3696911,6.4289165,7.5625157,-0.025198173,0.0140498895,0.052381653,0.1615957,-0.28496784,-0.8084815,-6.95625,-26.400002,-29.2875
1763129265567,0.47078785,6.382256,7.450053,-0.025198173,0.0140498895,0.052381653,0.1615957,-0.28496784,-0.8084815,-6.95625,-26.400002,-29.2875
1763129265579,0.47078785,6.382256,7.450053,-0.025198173,0.0140498895,0.052381653,0.16150647,-0.28483123,-0.8081067,-6.95625,-26.400002,-29.2875
1763129265580,0.47078785,6.382256,7.450053,-0.025198173,0.0140498895,0.052381653,0.16150647,-0.28483123,-0.8081067,-6.9750004,-24.7875,-28.650002
1763129265588,0.47078785,6.382256,7.450053,-0.021074835,0.0058032153,3.054324E-4,0.16150647,-0.28483123,-0.8081067,-6.9750004,-24.7875,-28.650002
1763129265590,0.3397808,6.142974,7.452446,-0.021074835,0.0058032153,3.054324E-4,0.16150647,-0.28483123,-0.8081067,-6.9750004,-24.7875,-28.650002
1763129265597,0.3397808,6.142974,7.452446,-0.021074835,0.0058032153,3.054324E-4,0.16150647,-0.28483123,-0.8081067,-6.61875,-25.35,-28.10625
1763129265598,0.3397808,6.142974,7.452446,-0.021074835,0.0058032153,3.054324E-4,0.16150136,-0.28470707,-0.8080024,-6.61875,-25.35,-28.10625
1763129265606,0.3397808,6.142974,7.452446,-0.053603385,0.052687086,0.00763581,0.16150136,-0.28470707,-0.8080024,-6.61875,-25.35,-28.10625
1763129265607,0.17407785,5.99761,7.3806615,-0.053603385,0.052687086,0.00763581,0.16150136,-0.28470707,-0.8080024,-6.61875,-25.35,-28.10625
1763129265618,0.17407785,5.99761,7.3806615,-0.053603385,0.052687086,0.00763581,0.16167799,-0.2840431,-0.8079476,-6.61875,-25.35,-28.10625
1763129265618,0.17407785,5.99761,7.3806615,-0.053603385,0.052687086,0.00763581,0.16167799,-0.2840431,-0.8079476,-7.70625,-25.7625,-27.862501
1763129265631,0.17407785,5.99761,7.3806615,-0.11682789,0.08170316,0.029626941,0.16167799,-0.2840431,-0.8079476,-7.70625,-25.7625,-27.862501
1763129265632,0.06699903,6.032904,7.375876,-0.11682789,0.08170316,0.029626941,0.16167799,-0.2840431,-0.8079476,-7.70625,-25.7625,-27.862501
1763129265637,0.06699903,6.032904,7.375876,-0.11682789,0.08170316,0.029626941,0.16174449,-0.28269565,-0.80791235,-7.70625,-25.7625,-27.862501
1763129265639,0.06699903,6.032904,7.375876,-0.11682789,0.08170316,0.029626941,0.16174449,-0.28269565,-0.80791235,-6.8625,-25.406252,-28.9125
1763129265649,0.06699903,6.032904,7.375876,-0.14889829,0.06169734,0.047189303,0.16174449,-0.28269565,-0.80791235,-6.8625,-25.406252,-28.9125
1763129265650,0.10707881,6.087341,7.4356966,-0.14889829,0.06169734,0.047189303,0.16174449,-0.28269565,-0.80791235,-6.8625,-25.406252,-28.9125
1763129265658,0.10707881,6.087341,7.4356966,-0.14889829,0.06169734,0.047189303,0.1614816,-0.2811917,-0.8078615,-6.8625,-25.406252,-28.9125
1763129265659,0.10707881,6.087341,7.4356966,-0.14889829,0.06169734,0.047189303,0.1614816,-0.2811917,-0.8078615,-6.9187503,-25.237501,-26.250002
1763129265672,0.10707881,6.087341,7.4356966,-0.11423171,-0.018936807,0.01282816,0.1614816,-0.2811917,-0.8078615,-6.9187503,-25.237501,-26.250002
1763129265678,0.19142582,6.1531434,7.5864444,-0.11423171,-0.018936807,0.01282816,0.1614816,-0.2811917,-0.8078615,-6.9187503,-25.237501,-26.250002
1763129265678,0.19142582,6.1531434,7.5864444,-0.11423171,-0.018936807,0.01282816,0.16081366,-0.28034845,-0.80801284,-6.9187503,-25.237501,-26.250002
1763129265679,0.19142582,6.1531434,7.5864444,-0.11423171,-0.018936807,0.01282816,0.16081366,-0.28034845,-0.80801284,-7.6125,-24.768751,-27.956251
1763129265691,0.19142582,6.1531434,7.5864444,-0.060017463,-0.058337588,-0.03604102,0.16081366,-0.28034845,-0.80801284,-7.6125,-24.768751,-27.956251
1763129265692,0.09451649,5.9497533,7.7180495,-0.060017463,-0.058337588,-0.03604102,0.16081366,-0.28034845,-0.80801284,-7.6125,-24.768751,-27.956251
1763129265698,0.09451649,5.9497533,7.7180495,-0.060017463,-0.058337588,-0.03604102,0.1601986,-0.2801001,-0.80835265,-7.6125,-24.768751,-27.956251
1763129265699,0.09451649,5.9497533,7.7180495,-0.060017463,-0.058337588,-0.03604102,0.1601986,-0.2801001,-0.80835265,-8.4375,-26.8875,-26.868752
1763129265714,0.09451649,5.9497533,7.7180495,-0.06062833,-0.017715078,-0.011911863,0.1601986,-0.2801001,-0.80835265,-8.4375,-26.8875,-26.868752
1763129265715,-0.017347964,5.79422,7.8646097,-0.06062833,-0.017715078,-0.011911863,0.1601986,-0.2801001,-0.80835265,-8.4375,-26.8875,-26.868752
1763129265718,-0.017347964,5.79422,7.8646097,-0.06062833,-0.017715078,-0.011911863,0.1601986,-0.2801001,-0.80835265,-6.39375,-24.487501,-27.956251
1763129265719,-0.017347964,5.79422,7.8646097,-0.06062833,-0.017715078,-0.011911863,0.15979777,-0.27964306,-0.80860305,-6.39375,-24.487501,-27.956251
1763129265733,-0.017347964,5.79422,7.8646097,-0.063377224,0.04856375,0.019853106,0.15979777,-0.27964306,-0.80860305,-6.39375,-24.487501,-27.956251
1763129265735,0.02213361,5.8241305,7.774879,-0.063377224,0.04856375,0.019853106,0.15979777,-0.27964306,-0.80860305,-6.39375,-24.487501,-27.956251
1763129265739,0.02213361,5.8241305,7.774879,-0.063377224,0.04856375,0.019853106,0.15981202,-0.27884087,-0.80866927,-6.39375,-24.487501,-27.956251
1763129265740,0.02213361,5.8241305,7.774879,-0.063377224,0.04856375,0.019853106,0.15981202,-0.27884087,-0.80866927,-6.95625,-24.937502,-27.2625
1763129265755,0.02213361,5.8241305,7.774879,-0.07467822,0.07192933,0.045051277,0.15981202,-0.27884087,-0.80866927,-6.95625,-24.937502,-27.2625
1763129265757,0.022731815,5.8672013,7.6396847,-0.07467822,0.07192933,0.045051277,0.15981202,-0.27884087,-0.80866927,-6.95625,-24.937502,-27.2625
1763129265759,0.022731815,5.8672013,7.6396847,-0.07467822,0.07192933,0.045051277,0.15991347,-0.27787897,-0.8085577,-6.95625,-24.937502,-27.2625
1763129265760,0.022731815,5.8672013,7.6396847,-0.07467822,0.07192933,0.045051277,0.15991347,-0.27787897,-0.8085577,-7.275,-25.331251,-27.843752
1763129265775,0.022731815,5.8672013,7.6396847,-0.09025527,0.060017463,0.06536253,0.15991347,-0.27787897,-0.8085577,-7.275,-25.331251,-27.843752
1763129265776,0.0035892338,5.928218,7.620542,-0.09025527,0.060017463,0.06536253,0.15991347,-0.27787897,-0.8085577,-7.275,-25.331251,-27.843752
1763129265778,0.0035892338,5.928218,7.620542,-0.09025527,0.060017463,0.06536253,0.15982279,-0.27688894,-0.8083355,-7.275,-25.331251,-27.843752
1763129265780,0.0035892338,5.928218,7.620542,-0.09025527,0.060017463,0.06536253,0.15982279,-0.27688894,-0.8083355,-6.76875,-24.431252,-29.00625
1763129265795,0.0035892338,5.928218,7.620542,-0.07223476,0.027030766,0.069485866,0.15982279,-0.27688894,-0.8083355,-6.76875,-24.431252,-29.00625
1763129265796,0.029910283,5.9246287,7.962117,-0.07223476,0.027030766,0.069485866,0.15982279,-0.27688894,-0.8083355,-6.76875,-24.431252,-29.00625
1763129265798,0.029910283,5.9246287,7.962117,-0.07223476,0.027030766,0.069485866,0.15957001,-0.27622986,-0.8080492,-6.76875,-24.431252,-29.00625
1763129265799,0.029910283,5.9246287,7.962117,-0.07223476,0.027030766,0.069485866,0.15957001,-0.27622986,-0.8080492,-7.0125003,-24.487501,-29.5125
1763129265819,0.029910283,5.9246287,7.962117,-0.07223476,0.027030766,0.069485866,0.1604526,-0.27577722,-0.80757606,-7.0125003,-24.487501,-29.5125
1763129265820,0.029910283,5.9246287,7.962117,-0.07223476,0.027030766,0.069485866,0.1604526,-0.27577722,-0.80757606,-7.0875,-24.018751,-28.893751
1763129265821,0.029910283,5.9246287,7.962117,0.010384701,0.11575887,0.05329795,0.1604526,-0.27577722,-0.80757606,-7.0875,-24.018751,-28.893751
1763129265823,0.15014961,5.8624153,8.191829,0.010384701,0.11575887,0.05329795,0.1604526,-0.27577722,-0.80757606,-7.0875,-24.018751,-28.893751
1763129265838,0.15014961,5.8624153,8.191829,0.0876591,0.12202024,0.007177661,0.1604526,-0.27577722,-0.80757606,-7.0875,-24.018751,-28.893751
1763129265838,0.15014961,5.8624153,8.191829,0.0876591,0.12202024,0.007177661,0.16179898,-0.27588415,-0.807243,-7.0875,-24.018751,-28.893751
1763129265839,0.15014961,5.8624153,8.191829,0.0876591,0.12202024,0.007177661,0.16179898,-0.27588415,-0.807243,-8.7375,-25.687502,-28.500002
1763129265839,-0.26979074,5.79422,6.9613194,0.0876591,0.12202024,0.007177661,0.16179898,-0.27588415,-0.807243,-8.7375,-25.687502,-28.500002
1763129265859,-0.26979074,5.79422,6.9613194,0.0876591,0.12202024,0.007177661,0.16173838,-0.27661005,-0.8065603,-8.7375,-25.687502,-28.500002
1763129265860,-0.26979074,5.79422,6.9613194,0.04978548,-0.048258316,0.06582068,0.16173838,-0.27661005,-0.8065603,-8.7375,-25.687502,-28.500002
1763129265861,-0.26979074,5.79422,6.9613194,0.04978548,-0.048258316,0.06582068,0.16173838,-0.27661005,-0.8065603,-10.368751,-25.3875,-25.556252
1763129265862,-0.10707881,5.871987,7.3920274,0.04978548,-0.048258316,0.06582068,0.16173838,-0.27661005,-0.8065603,-10.368751,-25.3875,-25.556252
1763129265877,-0.10707881,5.871987,7.3920274,0.04978548,-0.048258316,0.06582068,0.16173838,-0.27661005,-0.8065603,-5.7937503,-24.187502,-28.0125
1763129265880,-0.10707881,5.871987,7.3920274,0.016493348,-0.1640172,0.057574004,0.16173838,-0.27661005,-0.8065603,-5.7937503,-24.187502,-28.0125
1763129265881,0.2428715,5.9880385,7.5314093,0.016493348,-0.1640172,0.057574004,0.16173838,-0.27661005,-0.8065603,-5.7937503,-24.187502,-28.0125
1763129265898,0.2428715,5.9880385,7.5314093,0.016493348,-0.1640172,0.057574004,0.16173838,-0.27661005,-0.8065603,-8.137501,-25.5375,-27.300001
1763129265901,0.2428715,5.9880385,7.5314093,0.044898562,-0.25198174,0.024281874,0.16173838,-0.27661005,-0.8065603,-8.137501,-25.5375,-27.300001
1763129265902,0.2428715,5.9880385,7.5314093,0.044898562,-0.25198174,0.024281874,0.16132972,-0.2774057,-0.80552226,-8.137501,-25.5375,-27.300001
1763129265903,0.2428715,5.9880385,7.5314093,0.044898562,-0.25198174,0.024281874,0.15970103,-0.27926436,-0.80514526,-8.137501,-25.5375,-27.300001
1763129265903,0.31465617,6.079564,8.1942215,0.044898562,-0.25198174,0.024281874,0.15970103,-0.27926436,-0.80514526,-8.137501,-25.5375,-27.300001
1763129265923,0.31465617,6.079564,8.1942215,0.044898562,-0.25198174,0.024281874,0.15970103,-0.27926436,-0.80514526,-9.09375,-25.125002,-27.843752
1763129265924,0.31465617,6.079564,8.1942215,0.102014415,-0.043371398,-0.00962112,0.15970103,-0.27926436,-0.80514526,-9.09375,-25.125002,-27.843752
1763129265924,0.31465617,6.079564,8.1942215,0.102014415,-0.043371398,-0.00962112,0.15919933,-0.2803879,-0.80575556,-9.09375,-25.125002,-27.843752
1763129265925,0.14356937,5.846264,7.698907,0.102014415,-0.043371398,-0.00962112,0.15919933,-0.2803879,-0.80575556,-9.09375,-25.125002,-27.843752
