timestamp,accX,accY,accZ,gyroX,gyroY,gyroZ,rotX,rotY,rotZ,magX,magY,magZ
1763129380285,-0.7531409,4.968696,7.476374,0.6717985,-0.5212204,-0.11423171,0.29828537,-0.06396251,-0.22313447,-10.25625,-0.76875,-33.768753
1763129380285,0.2757728,6.033502,6.012565,0.6717985,-0.5212204,-0.11423171,0.29828537,-0.06396251,-0.22313447,-10.25625,-0.76875,-33.768753
1763129380298,0.2757728,6.033502,6.012565,0.6717985,-0.5212204,-0.11423171,0.30357957,-0.07011707,-0.22568126,-10.25625,-0.76875,-33.768753
1763129380298,0.2757728,6.033502,6.012565,0.6717985,-0.5212204,-0.11423171,0.30357957,-0.07011707,-0.22568126,-16.518751,-4.275,-29.38125
1763129380305,0.2757728,6.033502,6.012565,0.1989892,-0.5071705,-0.26419902,0.30357957,-0.07011707,-0.22568126,-16.518751,-4.275,-29.38125
1763129380307,0.73399836,6.0951176,6.4683976,0.1989892,-0.5071705,-0.26419902,0.30357957,-0.07011707,-0.22568126,-16.518751,-4.275,-29.38125
1763129380317,0.73399836,6.0951176,6.4683976,0.1989892,-0.5071705,-0.26419902,0.304799,-0.07472614,-0.22943486,-16.518751,-4.275,-29.38125
1763129380318,0.73399836,6.0951176,6.4683976,0.1989892,-0.5071705,-0.26419902,0.304799,-0.07472614,-0.22943486,-15.168751,-3.15,-29.737501
1763129380327,0.73399836,6.0951176,6.4683976,-0.2686278,-0.14385866,-0.18570289,0.304799,-0.07472614,-0.22943486,-15.168751,-3.15,-29.737501
1763129380327,-0.05742774,5.454439,7.7682986,-0.2686278,-0.14385866,-0.18570289,0.304799,-0.07472614,-0.22943486,-15.168751,-3.15,-29.737501
1763129380337,-0.05742774,5.454439,7.7682986,-0.2686278,-0.14385866,-0.18570289,0.30223933,-0.075015254,-0.23151134,-15.168751,-3.15,-29.737501
1763129380338,-0.05742774,5.454439,7.7682986,-0.2686278,-0.14385866,-0.18570289,0.30223933,-0.075015254,-0.23151134,-14.906251,-2.9625,-31.987501
1763129380348,-0.3385844,5.552545,7.94118,-0.2686278,-0.14385866,-0.18570289,0.30223933,-0.075015254,-0.23151134,-14.906251,-2.9625,-31.987501
1763129380348,-0.3385844,5.552545,7.94118,-0.32971427,0.1244637,0.016035201,0.30223933,-0.075015254,-0.23151134,-14.906251,-2.9625,-31.987501
1763129380357,-0.3385844,5.552545,7.94118,-0.32971427,0.1244637,0.016035201,0.29930535,-0.073053285,-0.23124692,-14.906251,-2.9625,-31.987501
1763129380358,-0.3385844,5.552545,7.94118,-0.32971427,0.1244637,0.016035201,0.29930535,-0.073053285,-0.23124692,-11.981251,-2.11875,-32.25
1763129380369,-0.3385844,5.552545,7.94118,-0.17974696,0.08261946,0.098654665,0.29930535,-0.073053285,-0.23124692,-11.981251,-2.11875,-32.25
1763129380369,-0.07178468,5.8540406,7.856833,-0.17974696,0.08261946,0.098654665,0.29930535,-0.073053285,-0.23124692,-11.981251,-2.11875,-32.25
1763129380378,-0.07178468,5.8540406,7.856833,-0.17974696,0.08261946,0.098654665,0.29767156,-0.072074644,-0.23027986,-11.981251,-2.11875,-32.25
1763129380379,-0.07178468,5.8540406,7.856833,-0.17974696,0.08261946,0.098654665,0.29767156,-0.072074644,-0.23027986,-9.50625,0.20625001,-34.55625
1763129380390,-0.07178468,5.8540406,7.856833,-0.018173227,-0.031306818,0.02932151,0.29767156,-0.072074644,-0.23027986,-9.50625,0.20625001,-34.55625
1763129380391,0.36490545,5.8654065,7.776674,-0.018173227,-0.031306818,0.02932151,0.29767156,-0.072074644,-0.23027986,-9.50625,0.20625001,-34.55625
1763129380397,0.36490545,5.8654065,7.776674,-0.018173227,-0.031306818,0.02932151,0.29744342,-0.072421685,-0.23009478,-9.50625,0.20625001,-34.55625
1763129380397,0.36490545,5.8654065,7.776674,-0.018173227,-0.031306818,0.02932151,0.29744342,-0.072421685,-0.23009478,-13.968751,-2.5687501,-30.900002
1763129380410,0.36490545,5.8654065,7.776674,-0.008704823,-0.025809037,-0.08414663,0.29744342,-0.072421685,-0.23009478,-13.968751,-2.5687501,-30.900002
1763129380411,0.36251262,5.654838,7.5960155,-0.008704823,-0.025809037,-0.08414663,0.29744342,-0.072421685,-0.23009478,-13.968751,-2.5687501,-30.900002
1763129380417,0.36251262,5.654838,7.5960155,-0.008704823,-0.025809037,-0.08414663,0.2974027,-0.0724589,-0.23083945,-13.968751,-2.5687501,-30.900002
1763129380417,0.36251262,5.654838,7.5960155,-0.008704823,-0.025809037,-0.08414663,0.2974027,-0.0724589,-0.23083945,-11.2875,-0.84375006,-32.081253
1763129380432,0.36251262,5.654838,7.5960155,-0.15668681,0.050396346,-0.11835505,0.2974027,-0.0724589,-0.23083945,-11.2875,-0.84375006,-32.081253
1763129380433,-0.086141616,5.2103715,7.740183,-0.15668681,0.050396346,-0.11835505,0.2974027,-0.0724589,-0.23083945,-11.2875,-0.84375006,-32.081253
1763129380437,-0.086141616,5.2103715,7.740183,-0.15668681,0.050396346,-0.11835505,0.296127,-0.07129339,-0.2317898,-11.2875,-0.84375006,-32.081253
1763129380439,-0.086141616,5.2103715,7.740183,-0.15668681,0.050396346,-0.11835505,0.296127,-0.07129339,-0.2317898,-11.7375,3.1125002,-28.706251
1763129380453,-0.086141616,5.2103715,7.740183,-0.3019199,0.108581215,-0.018936807,0.296127,-0.07129339,-0.2317898,-11.7375,3.1125002,-28.706251
1763129380454,-0.53300124,5.157131,8.095517,-0.3019199,0.108581215,-0.018936807,0.296127,-0.07129339,-0.2317898,-11.7375,3.1125002,-28.706251
1763129380459,-0.53300124,5.157131,8.095517,-0.3019199,0.108581215,-0.018936807,0.29343048,-0.06944099,-0.23189157,-11.7375,3.1125002,-28.706251
1763129380460,-0.53300124,5.157131,8.095517,-0.3019199,0.108581215,-0.018936807,0.29343048,-0.06944099,-0.23189157,-11.15625,-1.6125001,-33.3375
1763129380474,-0.53300124,5.157131,8.095517,-0.34758207,0.12690715,0.11453715,0.29343048,-0.06944099,-0.23189157,-11.15625,-1.6125001,-33.3375
1763129380474,-0.5198407,5.197211,8.444869,-0.34758207,0.12690715,0.11453715,0.29343048,-0.06944099,-0.23189157,-11.15625,-1.6125001,-33.3375
1763129380478,-0.5198407,5.197211,8.444869,-0.34758207,0.12690715,0.11453715,0.29020795,-0.06763317,-0.23083241,-11.15625,-1.6125001,-33.3375
1763129380479,-0.5198407,5.197211,8.444869,-0.34758207,0.12690715,0.11453715,0.29020795,-0.06763317,-0.23083241,-11.15625,-2.2687502,-34.237503
1763129380495,-0.5198407,5.197211,8.444869,-0.2686278,0.14172062,0.18264857,0.29020795,-0.06763317,-0.23083241,-11.15625,-2.2687502,-34.237503
1763129380495,-0.19142582,5.174479,8.882157,-0.2686278,0.14172062,0.18264857,0.29020795,-0.06763317,-0.23083241,-11.15625,-2.2687502,-34.237503
1763129380497,-0.19142582,5.174479,8.882157,-0.2686278,0.14172062,0.18264857,0.28770843,-0.06607848,-0.22901426,-11.15625,-2.2687502,-34.237503
1763129380498,-0.19142582,5.174479,8.882157,-0.2686278,0.14172062,0.18264857,0.28770843,-0.06607848,-0.22901426,-11.34375,-1.9875001,-33.9
1763129380515,-0.19142582,5.174479,8.882157,-0.12079851,0.21364996,0.20036365,0.28770843,-0.06607848,-0.22901426,-11.34375,-1.9875001,-33.9
1763129380516,-0.06580263,5.130212,9.016156,-0.12079851,0.21364996,0.20036365,0.28770843,-0.06607848,-0.22901426,-11.34375,-1.9875001,-33.9
1763129380517,-0.06580263,5.130212,9.016156,-0.12079851,0.21364996,0.20036365,0.28673187,-0.06428423,-0.22662832,-11.34375,-1.9875001,-33.9
1763129380517,-0.06580263,5.130212,9.016156,-0.12079851,0.21364996,0.20036365,0.28673187,-0.06428423,-0.22662832,-11.75625,-1.10625,-32.30625
1763129380538,-0.06580263,5.130212,9.016156,-0.0010690134,0.31230462,0.19669846,0.28673187,-0.06428423,-0.22662832,-11.75625,-1.10625,-32.30625
1763129380538,-0.06580263,5.130212,9.016156,-0.0010690134,0.31230462,0.19669846,0.28712264,-0.061824996,-0.22386241,-11.75625,-1.10625,-32.30625
1763129380539,-0.10049855,5.224728,9.037093,-0.0010690134,0.31230462,0.19669846,0.28712264,-0.061824996,-0.22386241,-11.75625,-1.10625,-32.30625
1763129380539,-0.10049855,5.224728,9.037093,-0.0010690134,0.31230462,0.19669846,0.28712264,-0.061824996,-0.22386241,-13.200001,-1.6125001,-33.487503
1763129380559,-0.10049855,5.224728,9.037093,-0.0010690134,0.31230462,0.19669846,0.28839818,-0.058248688,-0.22037025,-13.200001,-1.6125001,-33.487503
1763129380560,-0.26919255,5.229514,8.754142,-0.0010690134,0.31230462,0.19669846,0.28839818,-0.058248688,-0.22037025,-13.200001,-1.6125001,-33.487503
1763129380561,-0.26919255,5.229514,8.754142,0.057574004,0.44944376,0.22281294,0.28839818,-0.058248688,-0.22037025,-13.200001,-1.6125001,-33.487503
1763129380562,-0.26919255,5.229514,8.754142,0.057574004,0.44944376,0.22281294,0.28839818,-0.058248688,-0.22037025,-15.525001,-4.8562503,-30.45
1763129380578,-0.26919255,5.229514,8.754142,0.057574004,0.44944376,0.22281294,0.28839818,-0.058248688,-0.22037025,-10.087501,-1.7062501,-34.818752
1763129380580,-0.26919255,5.229514,8.754142,0.068722285,0.5109884,0.29382595,0.28839818,-0.058248688,-0.22037025,-10.087501,-1.7062501,-34.818752
1763129380581,-0.26919255,5.229514,8.754142,0.068722285,0.5109884,0.29382595,0.28991592,-0.05429427,-0.21599895,-10.087501,-1.7062501,-34.818752
1763129380582,-0.45104706,5.168497,8.385647,0.068722285,0.5109884,0.29382595,0.28991592,-0.05429427,-0.21599895,-10.087501,-1.7062501,-34.818752
1763129380597,-0.45104706,5.168497,8.385647,0.068722285,0.5109884,0.29382595,0.28991592,-0.05429427,-0.21599895,-8.8125,-0.13125001,-35.025
1763129380600,-0.45104706,5.168497,8.385647,0.042607818,0.54855657,0.38331765,0.28991592,-0.05429427,-0.21599895,-8.8125,-0.13125001,-35.025
1763129380602,-0.45104706,5.168497,8.385647,0.042607818,0.54855657,0.38331765,0.2912427,-0.050162386,-0.21066853,-8.8125,-0.13125001,-35.025
1763129380603,-0.3924229,5.1493545,8.2761755,0.042607818,0.54855657,0.38331765,0.2912427,-0.050162386,-0.21066853,-8.8125,-0.13125001,-35.025
1763129380618,-0.3924229,5.1493545,8.2761755,0.042607818,0.54855657,0.38331765,0.2912427,-0.050162386,-0.21066853,-8.325001,0.7875,-34.66875
1763129380620,-0.33200413,5.272585,8.27139,0.042607818,0.54855657,0.38331765,0.2912427,-0.050162386,-0.21066853,-8.325001,0.7875,-34.66875
1763129380621,-0.33200413,5.272585,8.27139,0.03451386,0.582765,0.46731156,0.2912427,-0.050162386,-0.21066853,-8.325001,0.7875,-34.66875
1763129380622,-0.33200413,5.272585,8.27139,0.03451386,0.582765,0.46731156,0.29251182,-0.04594929,-0.20436671,-8.325001,0.7875,-34.66875
1763129380638,-0.33200413,5.272585,8.27139,0.03451386,0.582765,0.46731156,0.29251182,-0.04594929,-0.20436671,-7.7625003,1.3875,-36.91875
1763129380642,-0.33200413,5.272585,8.27139,0.101708986,0.5398517,0.46853328,0.29251182,-0.04594929,-0.20436671,-7.7625003,1.3875,-36.91875
1763129380643,-0.33200413,5.272585,8.27139,0.101708986,0.5398517,0.46853328,0.2943455,-0.042318974,-0.19809806,-7.7625003,1.3875,-36.91875
1763129380644,-0.1788635,5.576473,8.133802,0.101708986,0.5398517,0.46853328,0.2943455,-0.042318974,-0.19809806,-7.7625003,1.3875,-36.91875
1763129380657,-0.1788635,5.576473,8.133802,0.101708986,0.5398517,0.46853328,0.2943455,-0.042318974,-0.19809806,-7.2375,1.0500001,-34.10625
1763129380663,-0.1788635,5.576473,8.133802,0.101708986,0.5398517,0.46853328,0.29690516,-0.039021056,-0.19273072,-7.2375,1.0500001,-34.10625
1763129380664,-0.22971097,5.5627146,7.9794655,0.101708986,0.5398517,0.46853328,0.29690516,-0.039021056,-0.19273072,-7.2375,1.0500001,-34.10625
1763129380665,-0.22971097,5.5627146,7.9794655,0.17608178,0.4958695,0.37598726,0.29690516,-0.039021056,-0.19273072,-7.2375,1.0500001,-34.10625
1763129380678,-0.22971097,5.5627146,7.9794655,0.17608178,0.4958695,0.37598726,0.29690516,-0.039021056,-0.19273072,-8.6625,-1.2,-33.9375
1763129380686,-0.22971097,5.5627146,7.9794655,0.20005822,0.4657844,0.318566,0.29690516,-0.039021056,-0.19273072,-8.6625,-1.2,-33.9375
1763129380687,-0.22971097,5.5627146,7.9794655,0.20005822,0.4657844,0.318566,0.2996579,-0.03588357,-0.18800281,-8.6625,-1.2,-33.9375
1763129380688,-0.42771706,5.4699926,7.7910304,0.20005822,0.4657844,0.318566,0.2996579,-0.03588357,-0.18800281,-8.6625,-1.2,-33.9375
1763129380697,-0.42771706,5.4699926,7.7910304,0.20005822,0.4657844,0.318566,0.2996579,-0.03588357,-0.18800281,-7.7812505,-0.8625,-35.737503
1763129380704,-0.42771706,5.4699926,7.7910304,0.16890411,0.45112363,0.34574947,0.2996579,-0.03588357,-0.18800281,-7.7812505,-0.8625,-35.737503
1763129380706,-0.52522457,5.4233327,7.830512,0.16890411,0.45112363,0.34574947,0.2996579,-0.03588357,-0.18800281,-7.7812505,-0.8625,-35.737503
1763129380718,-0.52522457,5.4233327,7.830512,0.16890411,0.45112363,0.34574947,0.30206007,-0.032884896,-0.18311614,-7.7812505,-0.8625,-35.737503
1763129380719,-0.52522457,5.4233327,7.830512,0.16890411,0.45112363,0.34574947,0.30206007,-0.032884896,-0.18311614,-8.26875,0.3375,-34.068752
1763129380729,-0.52522457,5.4233327,7.830512,0.120034926,0.4732675,0.40530878,0.30206007,-0.032884896,-0.18311614,-8.26875,0.3375,-34.068752
1763129380730,-0.5515456,5.4113684,7.8693953,0.120034926,0.4732675,0.40530878,0.30206007,-0.032884896,-0.18311614,-8.26875,0.3375,-34.068752
1763129380737,-0.5515456,5.4113684,7.8693953,0.120034926,0.4732675,0.40530878,0.30206007,-0.032884896,-0.18311614,-6.61875,1.3312501,-35.662502
1763129380737,-0.5515456,5.4113684,7.8693953,0.120034926,0.4732675,0.40530878,0.3039722,-0.02975021,-0.17761524,-6.61875,1.3312501,-35.662502
1763129380746,-0.5515456,5.4113684,7.8693953,0.083993904,0.48777553,0.45219266,0.3039722,-0.02975021,-0.17761524,-6.61875,1.3312501,-35.662502
1763129380747,-0.5617151,5.4496536,7.818548,0.083993904,0.48777553,0.45219266,0.3039722,-0.02975021,-0.17761524,-6.61875,1.3312501,-35.662502
1763129380757,-0.5617151,5.4496536,7.818548,0.083993904,0.48777553,0.45219266,0.30551374,-0.026554495,-0.17161584,-6.61875,1.3312501,-35.662502
1763129380758,-0.5617151,5.4496536,7.818548,0.083993904,0.48777553,0.45219266,0.30551374,-0.026554495,-0.17161584,-7.18125,1.5375,-34.96875
1763129380771,-0.5617151,5.4496536,7.818548,0.10231985,0.44104436,0.45692685,0.30551374,-0.026554495,-0.17161584,-7.18125,1.5375,-34.96875
1763129380772,-0.5485546,5.6243296,7.8035927,0.10231985,0.44104436,0.45692685,0.30551374,-0.026554495,-0.17161584,-7.18125,1.5375,-34.96875
1763129380777,-0.5485546,5.6243296,7.8035927,0.10231985,0.44104436,0.45692685,0.307144,-0.023864735,-0.1657012,-7.18125,1.5375,-34.96875
1763129380779,-0.5485546,5.6243296,7.8035927,0.10231985,0.44104436,0.45692685,0.307144,-0.023864735,-0.1657012,-7.275,-0.24375,-33.61875
1763129380789,-0.5485546,5.6243296,7.8035927,0.16584979,0.31841326,0.39263335,0.307144,-0.023864735,-0.1657012,-7.275,-0.24375,-33.61875
1763129380790,-0.55812585,5.790631,7.7419777,0.16584979,0.31841326,0.39263335,0.307144,-0.023864735,-0.1657012,-7.275,-0.24375,-33.61875
1763129380798,-0.55812585,5.790631,7.7419777,0.16584979,0.31841326,0.39263335,0.3092167,-0.0222876,-0.16077186,-7.275,-0.24375,-33.61875
1763129380799,-0.55812585,5.790631,7.7419777,0.16584979,0.31841326,0.39263335,0.3092167,-0.0222876,-0.16077186,-6.6562505,0.0375,-35.49375
1763129380811,-0.55812585,5.790631,7.7419777,0.26603162,0.14278965,0.32788166,0.3092167,-0.0222876,-0.16077186,-6.6562505,0.0375,-35.49375
1763129380811,-0.75613195,5.602794,7.624729,0.26603162,0.14278965,0.32788166,0.3092167,-0.0222876,-0.16077186,-6.6562505,0.0375,-35.49375
1763129380820,-0.75613195,5.602794,7.624729,0.26603162,0.14278965,0.32788166,0.31201383,-0.02239371,-0.15701802,-6.6562505,0.0375,-35.49375
1763129380821,-0.75613195,5.602794,7.624729,0.26603162,0.14278965,0.32788166,0.31201383,-0.02239371,-0.15701802,-7.51875,-0.15,-36.45
1763129380830,-0.75613195,5.602794,7.624729,0.411112,-0.09666935,0.35766134,0.31201383,-0.02239371,-0.15701802,-7.51875,-0.15,-36.45
1763129380831,-1.0175478,5.326423,7.515258,0.411112,-0.09666935,0.35766134,0.31201383,-0.02239371,-0.15701802,-7.51875,-0.15,-36.45
1763129380837,-1.0175478,5.326423,7.515258,0.411112,-0.09666935,0.35766134,0.31579545,-0.025147775,-0.15382396,-7.51875,-0.15,-36.45
1763129380838,-1.0175478,5.326423,7.515258,0.411112,-0.09666935,0.35766134,0.31579545,-0.025147775,-0.15382396,-7.18125,-0.71250004,-35.5875
1763129380852,-0.7639086,5.4795637,7.698907,0.411112,-0.09666935,0.35766134,0.31579545,-0.025147775,-0.15382396,-7.18125,-0.71250004,-35.5875
1763129380853,-0.7639086,5.4795637,7.698907,0.60994846,-0.4178315,0.44852746,0.31579545,-0.025147775,-0.15382396,-7.18125,-0.71250004,-35.5875
1763129380857,-0.7639086,5.4795637,7.698907,0.60994846,-0.4178315,0.44852746,0.31579545,-0.025147775,-0.15382396,-6.7125,0.35625002,-35.287502
1763129380858,-0.7639086,5.4795637,7.698907,0.60994846,-0.4178315,0.44852746,0.32091367,-0.03161585,-0.15089945,-6.7125,0.35625002,-35.287502
1763129380873,-0.7639086,5.4795637,7.698907,0.7968731,-0.51388997,0.41722065,0.32091367,-0.03161585,-0.15089945,-6.7125,0.35625002,-35.287502
1763129380874,0.010767702,5.9676995,7.870592,0.7968731,-0.51388997,0.41722065,0.32091367,-0.03161585,-0.15089945,-6.7125,0.35625002,-35.287502
1763129380878,0.010767702,5.9676995,7.870592,0.7968731,-0.51388997,0.41722065,0.32764953,-0.039234914,-0.14849518,-6.7125,0.35625002,-35.287502
1763129380880,0.010767702,5.9676995,7.870592,0.7968731,-0.51388997,0.41722065,0.32764953,-0.039234914,-0.14849518,-6.9187503,-0.80625004,-35.34375
1763129380895,0.010767702,5.9676995,7.870592,0.7634283,-0.35995206,0.24312419,0.32764953,-0.039234914,-0.14849518,-6.9187503,-0.80625004,-35.34375
1763129380896,0.13100705,6.2309103,7.2149587,0.7634283,-0.35995206,0.24312419,0.32764953,-0.039234914,-0.14849518,-6.9187503,-0.80625004,-35.34375
1763129380898,0.13100705,6.2309103,7.2149587,0.7634283,-0.35995206,0.24312419,0.33434653,-0.044799812,-0.14701442,-6.9187503,-0.80625004,-35.34375
1763129380899,0.13100705,6.2309103,7.2149587,0.7634283,-0.35995206,0.24312419,0.33434653,-0.044799812,-0.14701442,-5.775,0.90000004,-36.05625
1763129380915,0.13100705,6.2309103,7.2149587,0.47006044,-0.20540328,0.124310985,0.33434653,-0.044799812,-0.14701442,-5.775,0.90000004,-36.05625
1763129380916,-0.09930214,6.4289165,6.77767,0.47006044,-0.20540328,0.124310985,0.33434653,-0.044799812,-0.14701442,-5.775,0.90000004,-36.05625
1763129380918,-0.09930214,6.4289165,6.77767,0.47006044,-0.20540328,0.124310985,0.33858138,-0.04799988,-0.14620784,-5.775,0.90000004,-36.05625
1763129380919,-0.09930214,6.4289165,6.77767,0.47006044,-0.20540328,0.124310985,0.33858138,-0.04799988,-0.14620784,-6.4125004,0.112500004,-35.4375
1763129380935,-0.09930214,6.4289165,6.77767,0.13545926,-0.13271037,0.11285727,0.33858138,-0.04799988,-0.14620784,-6.4125004,0.112500004,-35.4375
1763129380937,-0.08973085,6.4462643,6.9505515,0.13545926,-0.13271037,0.11285727,0.33858138,-0.04799988,-0.14620784,-6.4125004,0.112500004,-35.4375
1763129380939,-0.08973085,6.4462643,6.9505515,0.13545926,-0.13271037,0.11285727,0.33977354,-0.049899414,-0.14547418,-6.4125004,0.112500004,-35.4375
1763129380940,-0.08973085,6.4462643,6.9505515,0.13545926,-0.13271037,0.11285727,0.33977354,-0.049899414,-0.14547418,-5.5687504,1.10625,-34.6875
1763129380958,-0.08973085,6.4462643,6.9505515,-0.014966187,-0.1434005,0.12996148,0.33977354,-0.049899414,-0.14547418,-5.5687504,1.10625,-34.6875
1763129380959,-0.08973085,6.4462643,6.9505515,-0.014966187,-0.1434005,0.12996148,0.33944976,-0.05172976,-0.14470947,-5.5687504,1.10625,-34.6875
1763129380961,0.07298109,6.393622,7.3830543,-0.014966187,-0.1434005,0.12996148,0.33944976,-0.05172976,-0.14470947,-5.5687504,1.10625,-34.6875
1763129380963,0.07298109,6.393622,7.3830543,-0.014966187,-0.1434005,0.12996148,0.33944976,-0.05172976,-0.14470947,-7.0125003,-1.8000001,-35.25
1763129380978,0.07298109,6.393622,7.3830543,-0.014966187,-0.1434005,0.12996148,0.33945403,-0.053808276,-0.14417379,-7.0125003,-1.8000001,-35.25
1763129380979,0.07298109,6.393622,7.3830543,0.029932374,-0.16707152,0.11133011,0.33945403,-0.053808276,-0.14417379,-7.0125003,-1.8000001,-35.25
1763129380980,0.07298109,6.393622,7.3830543,0.029932374,-0.16707152,0.11133011,0.33945403,-0.053808276,-0.14417379,-6.58125,-0.5625,-34.8375
1763129380981,0.27158538,6.413961,7.774879,0.029932374,-0.16707152,0.11133011,0.33945403,-0.053808276,-0.14417379,-6.58125,-0.5625,-34.8375
1763129380997,0.27158538,6.413961,7.774879,0.029932374,-0.16707152,0.11133011,0.33945403,-0.053808276,-0.14417379,-6.39375,-1.6500001,-34.800003
1763129380999,0.27158538,6.413961,7.774879,0.1036943,-0.123852834,0.062002774,0.33945403,-0.053808276,-0.14417379,-6.39375,-1.6500001,-34.800003
1763129381000,0.47078785,6.4606214,7.8281193,0.1036943,-0.123852834,0.062002774,0.33945403,-0.053808276,-0.14417379,-6.39375,-1.6500001,-34.800003
1763129381001,0.47078785,6.4606214,7.8281193,0.1036943,-0.123852834,0.062002774,0.34020174,-0.05542387,-0.1438889,-6.39375,-1.6500001,-34.800003
1763129381017,0.47078785,6.4606214,7.8281193,0.1036943,-0.123852834,0.062002774,0.34020174,-0.05542387,-0.1438889,-5.5687504,0.95625,-32.98125
1763129381021,0.47078785,6.4606214,7.8281193,0.115453444,-0.0632245,-0.003970621,0.34020174,-0.05542387,-0.1438889,-5.5687504,0.95625,-32.98125
1763129381022,0.47078785,6.4606214,7.8281193,0.115453444,-0.0632245,-0.003970621,0.34118313,-0.05625845,-0.14396062,-5.5687504,0.95625,-32.98125
1763129381023,0.47198427,6.586244,7.5661054,0.115453444,-0.0632245,-0.003970621,0.34118313,-0.05625845,-0.14396062,-5.5687504,0.95625,-32.98125
1763129381038,0.47198427,6.586244,7.5661054,0.115453444,-0.0632245,-0.003970621,0.34118313,-0.05625845,-0.14396062,-9.075001,-1.7812501,-33.75
1763129381041,0.47198427,6.586244,7.5661054,0.07192933,-0.052076224,-0.03084867,0.34118313,-0.05625845,-0.14396062,-9.075001,-1.7812501,-33.75
1763129381042,0.1471586,6.463612,7.460821,0.07192933,-0.052076224,-0.03084867,0.34118313,-0.05625845,-0.14396062,-9.075001,-1.7812501,-33.75
1763129381042,0.1471586,6.463612,7.460821,0.07192933,-0.052076224,-0.03084867,0.341835,-0.056822613,-0.14425701,-9.075001,-1.7812501,-33.75
1763129381058,0.1471586,6.463612,7.460821,0.07192933,-0.052076224,-0.03084867,0.341835,-0.056822613,-0.14425701,-7.18125,-0.71250004,-35.287502
1763129381062,0.1471586,6.463612,7.460821,0.049938194,-0.047647454,-0.0073303776,0.341835,-0.056822613,-0.14425701,-7.18125,-0.71250004,-35.287502
1763129381063,0.1471586,6.463612,7.460821,0.049938194,-0.047647454,-0.0073303776,0.34226415,-0.0573463,-0.14443943,-7.18125,-0.71250004,-35.287502
1763129381064,0.14177474,6.4031935,7.5643106,0.049938194,-0.047647454,-0.0073303776,0.34226415,-0.0573463,-0.14443943,-7.18125,-0.71250004,-35.287502
1763129381078,0.14177474,6.4031935,7.5643106,0.049938194,-0.047647454,-0.0073303776,0.34226415,-0.0573463,-0.14443943,-6.6937504,0.20625001,-34.631252
1763129381082,0.20398813,6.3475604,7.5146594,0.049938194,-0.047647454,-0.0073303776,0.34226415,-0.0573463,-0.14443943,-6.6937504,0.20625001,-34.631252
1763129381083,0.20398813,6.3475604,7.5146594,0.049938194,-0.047647454,-0.0073303776,0.34266123,-0.057325967,-0.1446467,-6.6937504,0.20625001,-34.631252
1763129381085,0.20398813,6.3475604,7.5146594,0.041233372,0.0,-0.02565632,0.34266123,-0.057325967,-0.1446467,-6.6937504,0.20625001,-34.631252
1763129381097,0.20398813,6.3475604,7.5146594,0.041233372,0.0,-0.02565632,0.34266123,-0.057325967,-0.1446467,-8.231251,-1.575,-32.79375
1763129381104,0.14177474,6.2775702,7.435098,0.041233372,0.0,-0.02565632,0.34266123,-0.057325967,-0.1446467,-8.231251,-1.575,-32.79375
1763129381105,0.14177474,6.2775702,7.435098,0.016951498,0.029779658,-0.045814857,0.34266123,-0.057325967,-0.1446467,-8.231251,-1.575,-32.79375
1763129381106,0.14177474,6.2775702,7.435098,0.016951498,0.029779658,-0.045814857,0.34287554,-0.056917418,-0.14493228,-8.231251,-1.575,-32.79375
1763129381117,0.14177474,6.2775702,7.435098,0.016951498,0.029779658,-0.045814857,0.34287554,-0.056917418,-0.14493228,-7.4625,-0.46875003,-36.3375
1763129381124,0.14177474,6.2775702,7.435098,0.016951498,0.029779658,-0.045814857,0.3433971,-0.05687287,-0.14525259,-7.4625,-0.46875003,-36.3375
1763129381126,-0.04007978,6.174679,7.5050883,0.016951498,0.029779658,-0.045814857,0.3433971,-0.05687287,-0.14525259,-7.4625,-0.46875003,-36.3375
1763129381127,-0.04007978,6.174679,7.5050883,0.053908817,0.0,-0.03848448,0.3433971,-0.05687287,-0.14525259,-7.4625,-0.46875003,-36.3375
1763129381138,-0.04007978,6.174679,7.5050883,0.053908817,0.0,-0.03848448,0.3433971,-0.05687287,-0.14525259,-8.793751,-3.4875002,-34.125
1763129381145,-0.1274178,6.0843496,7.496115,0.053908817,0.0,-0.03848448,0.3433971,-0.05687287,-0.14525259,-8.793751,-3.4875002,-34.125
1763129381146,-0.1274178,6.0843496,7.496115,0.14630212,-0.041691523,-0.027641632,0.3433971,-0.05687287,-0.14525259,-8.793751,-3.4875002,-34.125
1763129381157,-0.1274178,6.0843496,7.496115,0.14630212,-0.041691523,-0.027641632,0.34471264,-0.057386197,-0.1456417,-8.793751,-3.4875002,-34.125
1763129381158,-0.1274178,6.0843496,7.496115,0.14630212,-0.041691523,-0.027641632,0.34471264,-0.057386197,-0.1456417,-8.00625,-1.21875,-33.881252
1763129381166,-0.1274178,6.0843496,7.496115,0.21197008,-0.041233372,-0.011606431,0.34471264,-0.057386197,-0.1456417,-8.00625,-1.21875,-33.881252
1763129381167,-0.061016977,6.122037,7.4273214,0.21197008,-0.041233372,-0.011606431,0.34471264,-0.057386197,-0.1456417,-8.00625,-1.21875,-33.881252
1763129381177,-0.061016977,6.122037,7.4273214,0.21197008,-0.041233372,-0.011606431,0.34663135,-0.058050256,-0.1459012,-8.00625,-1.21875,-33.881252
1763129381178,-0.061016977,6.122037,7.4273214,0.21197008,-0.041233372,-0.011606431,0.34663135,-0.058050256,-0.1459012,-8.681251,-2.6625001,-33.84375
1763129381187,-0.061016977,6.122037,7.4273214,0.19211698,0.0048869182,-0.0051923506,0.34663135,-0.058050256,-0.1459012,-8.681251,-2.6625001,-33.84375
1763129381188,-0.08255238,6.15434,7.171888,0.19211698,0.0048869182,-0.0051923506,0.34663135,-0.058050256,-0.1459012,-8.681251,-2.6625001,-33.84375
1763129381197,-0.08255238,6.15434,7.171888,0.19211698,0.0048869182,-0.0051923506,0.3484307,-0.058268625,-0.14591387,-8.681251,-2.6625001,-33.84375
1763129381198,-0.08255238,6.15434,7.171888,0.19211698,0.0048869182,-0.0051923506,0.3484307,-0.058268625,-0.14591387,-6.4687505,0.41250002,-35.53125
1763129381209,-0.08255238,6.15434,7.171888,0.12324197,-0.027641632,0.017715078,0.3484307,-0.058268625,-0.14591387,-6.4687505,0.41250002,-35.53125
1763129381210,-0.17228323,6.263213,7.0606213,0.12324197,-0.027641632,0.017715078,0.3484307,-0.058268625,-0.14591387,-6.4687505,0.41250002,-35.53125
1763129381220,-0.17228323,6.263213,7.0606213,0.12324197,-0.027641632,0.017715078,0.34954333,-0.05875177,-0.14578716,-6.4687505,0.41250002,-35.53125
1763129381221,-0.17228323,6.263213,7.0606213,0.12324197,-0.027641632,0.017715078,0.34954333,-0.05875177,-0.14578716,-7.1250005,-2.775,-33.825
1763129381229,-0.17228323,6.263213,7.0606213,0.07269291,-0.07284562,0.050090913,0.34954333,-0.05875177,-0.14578716,-7.1250005,-2.775,-33.825
1763129381230,-0.043070808,6.3439713,7.251449,0.07269291,-0.07284562,0.050090913,0.34954333,-0.05875177,-0.14578716,-7.1250005,-2.775,-33.825
1763129381238,-0.043070808,6.3439713,7.251449,0.07269291,-0.07284562,0.050090913,0.3501113,-0.059708927,-0.14559154,-7.1250005,-2.775,-33.825
1763129381239,-0.043070808,6.3439713,7.251449,0.07269291,-0.07284562,0.050090913,0.3501113,-0.059708927,-0.14559154,-8.118751,-0.6,-34.237503
1763129381250,-0.043070808,6.3439713,7.251449,0.09224058,-0.08307761,0.04780017,0.3501113,-0.059708927,-0.14559154,-8.118751,-0.6,-34.237503
1763129381251,0.17527425,6.430113,7.5344005,0.09224058,-0.08307761,0.04780017,0.3501113,-0.059708927,-0.14559154,-8.118751,-0.6,-34.237503
1763129381257,0.17527425,6.430113,7.5344005,0.09224058,-0.08307761,0.04780017,0.35083306,-0.060788997,-0.14537786,-8.118751,-0.6,-34.237503
1763129381258,0.17527425,6.430113,7.5344005,0.09224058,-0.08307761,0.04780017,0.35083306,-0.060788997,-0.14537786,-6.6000004,-0.5625,-33.6375
1763129381271,0.17527425,6.430113,7.5344005,0.0980438,0.010079269,-7.6358096E-4,0.35083306,-0.060788997,-0.14537786,-6.6000004,-0.5625,-33.6375
1763129381272,0.25244278,6.474978,7.3663044,0.0980438,0.010079269,-7.6358096E-4,0.35083306,-0.060788997,-0.14537786,-6.6000004,-0.5625,-33.6375
1763129381278,0.25244278,6.474978,7.3663044,0.0980438,0.010079269,-7.6358096E-4,0.35174015,-0.060850784,-0.14529057,-6.6000004,-0.5625,-33.6375
1763129381279,0.25244278,6.474978,7.3663044,0.0980438,0.010079269,-7.6358096E-4,0.35174015,-0.060850784,-0.14529057,-7.51875,-2.7,-34.10625
1763129381292,0.011365907,6.443273,7.2041907,0.0980438,0.010079269,-7.6358096E-4,0.35174015,-0.060850784,-0.14529057,-7.51875,-2.7,-34.10625
1763129381293,0.011365907,6.443273,7.2041907,0.014966187,0.06017018,-0.0044287695,0.35174015,-0.060850784,-0.14529057,-7.51875,-2.7,-34.10625
1763129381298,0.011365907,6.443273,7.2041907,0.014966187,0.06017018,-0.0044287695,0.35195595,-0.060290918,-0.1450373,-7.51875,-2.7,-34.10625
1763129381299,0.011365907,6.443273,7.2041907,0.014966187,0.06017018,-0.0044287695,0.35195595,-0.060290918,-0.1450373,-8.212501,-1.575,-33.54375
1763129381313,0.011365907,6.443273,7.2041907,-0.031917684,0.04444041,0.035430156,0.35195595,-0.060290918,-0.1450373,-8.212501,-1.575,-33.54375
1763129381314,0.11365908,6.5084777,7.2472615,-0.031917684,0.04444041,0.035430156,0.35195595,-0.060290918,-0.1450373,-8.212501,-1.575,-33.54375
1763129381319,0.11365908,6.5084777,7.2472615,-0.031917684,0.04444041,0.035430156,0.35195595,-0.060290918,-0.1450373,-6.58125,-0.5625,-34.3875
1763129381334,0.11365908,6.5084777,7.2472615,-0.005497783,0.019394957,0.017715078,0.35195595,-0.060290918,-0.1450373,-6.58125,-0.5625,-34.3875
1763129381336,0.28235307,6.5886374,7.4476604,-0.005497783,0.019394957,0.017715078,0.35195595,-0.060290918,-0.1450373,-6.58125,-0.5625,-34.3875
1763129381339,0.28235307,6.5886374,7.4476604,-0.005497783,0.019394957,0.017715078,0.35170677,-0.059864663,-0.14470457,-6.58125,-0.5625,-34.3875
1763129381340,0.28235307,6.5886374,7.4476604,-0.005497783,0.019394957,0.017715078,0.35170725,-0.059742875,-0.14432804,-6.58125,-0.5625,-34.3875
1763129381341,0.28235307,6.5886374,7.4476604,-0.005497783,0.019394957,0.017715078,0.35170725,-0.059742875,-0.14432804,-7.5937505,-2.1000001,-35.193752
1763129381355,0.28235307,6.5886374,7.4476604,0.022601997,0.037415467,-0.027488915,0.35170725,-0.059742875,-0.14432804,-7.5937505,-2.1000001,-35.193752
1763129381356,0.19980069,6.5407805,7.353742,0.022601997,0.037415467,-0.027488915,0.35170725,-0.059742875,-0.14432804,-7.5937505,-2.1000001,-35.193752
1763129381357,0.19980069,6.5407805,7.353742,0.022601997,0.037415467,-0.027488915,0.3518743,-0.05953173,-0.1440811,-7.5937505,-2.1000001,-35.193752
1763129381359,0.19980069,6.5407805,7.353742,0.022601997,0.037415467,-0.027488915,0.3518743,-0.05953173,-0.1440811,-8.08125,-2.3625002,-33.600002
1763129381379,0.19980069,6.5407805,7.353742,0.003817905,0.047647454,-0.026725333,0.3518743,-0.05953173,-0.1440811,-8.08125,-2.3625002,-33.600002
1763129381381,0.19980069,6.5407805,7.353742,0.003817905,0.047647454,-0.026725333,0.3519359,-0.05909242,-0.14387861,-8.08125,-2.3625002,-33.600002
1763129381383,0.19980069,6.5407805,7.353742,0.003817905,0.047647454,-0.026725333,0.3519359,-0.05909242,-0.14387861,-7.65,-1.9312501,-33.28125
1763129381385,0.10887343,6.471389,7.216753,0.003817905,0.047647454,-0.026725333,0.3519359,-0.05909242,-0.14387861,-7.65,-1.9312501,-33.28125
1763129381398,0.15972091,6.476773,7.280163,0.003817905,0.047647454,-0.026725333,0.3519359,-0.05909242,-0.14387861,-7.65,-1.9312501,-33.28125
1763129381399,0.15972091,6.476773,7.280163,-0.011606431,0.035888307,-0.016187917,0.3519359,-0.05909242,-0.14387861,-7.65,-1.9312501,-33.28125
1763129381401,0.15972091,6.476773,7.280163,-0.011606431,0.035888307,-0.016187917,0.35190636,-0.05869599,-0.14378025,-7.65,-1.9312501,-33.28125
1763129381402,0.15972091,6.476773,7.280163,-0.011606431,0.035888307,-0.016187917,0.35190636,-0.05869599,-0.14378025,-7.89375,-2.1375,-31.95
1763129381417,0.15972091,6.476773,7.280163,-0.011606431,0.035888307,-0.016187917,0.35190636,-0.05869599,-0.14378025,-7.4812503,-0.46875003,-35.287502
1763129381418,0.15972091,6.476773,7.280163,0.010690134,0.023518294,-0.027641632,0.35190636,-0.05869599,-0.14378025,-7.4812503,-0.46875003,-35.287502
1763129381419,0.15972091,6.476773,7.280163,0.010690134,0.023518294,-0.027641632,0.3520019,-0.05849168,-0.14379817,-7.4812503,-0.46875003,-35.287502
1763129381420,0.18364914,6.5001025,7.4069824,0.010690134,0.023518294,-0.027641632,0.3520019,-0.05849168,-0.14379817,-7.4812503,-0.46875003,-35.287502
1763129381437,0.18364914,6.5001025,7.4069824,0.010690134,0.023518294,-0.027641632,0.3520019,-0.05849168,-0.14379817,-6.1125,0.35625002,-32.98125
1763129381439,0.18364914,6.5001025,7.4069824,0.014813471,0.074525505,-0.051159926,0.3520019,-0.05849168,-0.14379817,-6.1125,0.35625002,-32.98125
1763129381440,0.18364914,6.5001025,7.4069824,0.014813471,0.074525505,-0.051159926,0.3521141,-0.057722956,-0.14374976,-6.1125,0.35625002,-32.98125
1763129381441,0.0035892338,6.387042,7.272386,0.014813471,0.074525505,-0.051159926,0.3521141,-0.057722956,-0.14374976,-6.1125,0.35625002,-32.98125
1763129381458,0.0035892338,6.387042,7.272386,0.014813471,0.074525505,-0.051159926,0.3521141,-0.057722956,-0.14374976,-8.19375,-1.5937501,-35.04375
1763129381460,0.0035892338,6.387042,7.272386,-0.020922119,0.100945406,-0.03008509,0.3521141,-0.057722956,-0.14374976,-8.19375,-1.5937501,-35.04375
1763129381462,0.0035892338,6.387042,7.272386,-0.020922119,0.100945406,-0.03008509,0.35194758,-0.056600004,-0.14387189,-8.19375,-1.5937501,-35.04375
1763129381464,-0.11844472,6.3248286,7.2083783,-0.020922119,0.100945406,-0.03008509,0.35194758,-0.056600004,-0.14387189,-8.19375,-1.5937501,-35.04375
1763129381479,-0.11844472,6.3248286,7.2083783,-0.020922119,0.100945406,-0.03008509,0.35194758,-0.056600004,-0.14387189,-7.4437504,-2.23125,-35.71875
1763129381482,-0.11844472,6.3248286,7.2083783,-0.03848448,0.093309596,0.0021380268,0.35194758,-0.056600004,-0.14387189,-7.4437504,-2.23125,-35.71875
1763129381483,-0.11844472,6.3248286,7.2083783,-0.03848448,0.093309596,0.0021380268,0.3516091,-0.055525925,-0.14392011,-7.4437504,-2.23125,-35.71875
1763129381485,-0.089132644,6.3236322,7.266404,-0.03848448,0.093309596,0.0021380268,0.3516091,-0.055525925,-0.14392011,-7.4437504,-2.23125,-35.71875
1763129381497,-0.089132644,6.3236322,7.266404,-0.03848448,0.093309596,0.0021380268,0.3516091,-0.055525925,-0.14392011,-6.39375,-1.8000001,-32.79375
1763129381502,-0.089132644,6.3236322,7.266404,-0.018936807,0.06459895,-0.002290743,0.3516091,-0.055525925,-0.14392011,-6.39375,-1.8000001,-32.79375
1763129381503,-0.089132644,6.3236322,7.266404,-0.018936807,0.06459895,-0.002290743,0.35135725,-0.054795917,-0.14405599,-6.39375,-1.8000001,-32.79375
1763129381505,0.010767702,6.4013987,7.2993054,-0.018936807,0.06459895,-0.002290743,0.35135725,-0.054795917,-0.14405599,-6.39375,-1.8000001,-32.79375
1763129381517,0.010767702,6.4013987,7.2993054,-0.018936807,0.06459895,-0.002290743,0.35135725,-0.054795917,-0.14405599,-7.8,-2.4562502,-35.15625
1763129381523,0.010767702,6.4013987,7.2993054,-0.018936807,0.06459895,-0.002290743,0.35140586,-0.054264553,-0.14415935,-7.8,-2.4562502,-35.15625
1763129381525,0.010767702,6.4013987,7.2993054,0.008246674,0.043524116,-0.032986697,0.35140586,-0.054264553,-0.14415935,-7.8,-2.4562502,-35.15625
1763129381526,0.025722843,6.4289165,7.2903323,0.008246674,0.043524116,-0.032986697,0.35140586,-0.054264553,-0.14415935,-7.8,-2.4562502,-35.15625
1763129381537,0.025722843,6.4289165,7.2903323,0.008246674,0.043524116,-0.032986697,0.35140586,-0.054264553,-0.14415935,-6.4687505,-1.1812501,-34.65
1763129381544,0.025722843,6.4289165,7.2903323,-0.0058032153,0.040775225,-0.040622506,0.35140586,-0.054264553,-0.14415935,-6.4687505,-1.1812501,-34.65
1763129381545,0.025722843,6.4289165,7.2903323,-0.0058032153,0.040775225,-0.040622506,0.3513609,-0.053757537,-0.14433041,-6.4687505,-1.1812501,-34.65
1763129381546,-0.12921242,6.330212,7.1772714,-0.0058032153,0.040775225,-0.040622506,0.3513609,-0.053757537,-0.14433041,-6.4687505,-1.1812501,-34.65
1763129381558,-0.12921242,6.330212,7.1772714,-0.0058032153,0.040775225,-0.040622506,0.3513609,-0.053757537,-0.14433041,-6.9375005,-0.65625,-34.93125
1763129381565,-0.12921242,6.330212,7.1772714,-0.03924806,0.032986697,-0.008093959,0.3513609,-0.053757537,-0.14433041,-6.9375005,-0.65625,-34.93125
1763129381566,-0.08793623,6.3571315,7.1820574,-0.03924806,0.032986697,-0.008093959,0.3513609,-0.053757537,-0.14433041,-6.9375005,-0.65625,-34.93125
1763129381578,-0.08793623,6.3571315,7.1820574,-0.03924806,0.032986697,-0.008093959,0.35100168,-0.053247254,-0.14455716,-6.9375005,-0.65625,-34.93125
1763129381579,-0.08793623,6.3571315,7.1820574,-0.03924806,0.032986697,-0.008093959,0.35100168,-0.053247254,-0.14455716,-7.5375004,-2.7,-32.5875
1763129381586,-0.08793623,6.3571315,7.1820574,-0.0632245,0.032223117,4.581486E-4,0.35100168,-0.053247254,-0.14455716,-7.5375004,-2.7,-32.5875
1763129381587,0.060418773,6.467201,7.219744,-0.0632245,0.032223117,4.581486E-4,0.35100168,-0.053247254,-0.14455716,-7.5375004,-2.7,-32.5875
1763129381597,0.060418773,6.467201,7.219744,-0.0632245,0.032223117,4.581486E-4,0.35044524,-0.052795287,-0.14460629,-7.5375004,-2.7,-32.5875
1763129381598,0.060418773,6.467201,7.219744,-0.0632245,0.032223117,4.581486E-4,0.35044524,-0.052795287,-0.14460629,-8.71875,-2.34375,-33.956253
1763129381607,0.060418773,6.467201,7.219744,-0.062460925,0.028863361,-0.016646065,0.35044524,-0.052795287,-0.14460629,-8.71875,-2.34375,-33.956253
1763129381608,0.26620153,6.5688963,7.467401,-0.062460925,0.028863361,-0.016646065,0.35044524,-0.052795287,-0.14460629,-8.71875,-2.34375,-33.956253
1763129381617,0.26620153,6.5688963,7.467401,-0.062460925,0.028863361,-0.016646065,0.34998947,-0.052472834,-0.14444563,-8.71875,-2.34375,-33.956253
1763129381618,0.26620153,6.5688963,7.467401,-0.062460925,0.028863361,-0.016646065,0.34998947,-0.052472834,-0.14444563,-8.137501,-2.8500001,-32.737503
1763129381628,0.40378883,6.578468,7.4907312,-0.062460925,0.028863361,-0.016646065,0.34998947,-0.052472834,-0.14444563,-8.137501,-2.8500001,-32.737503
1763129381630,0.40378883,6.578468,7.4907312,0.0108428495,0.056963142,-0.03970621,0.34998947,-0.052472834,-0.14444563,-8.137501,-2.8500001,-32.737503
1763129381638,0.40378883,6.578468,7.4907312,0.0108428495,0.056963142,-0.03970621,0.35012087,-0.052081592,-0.143858,-8.137501,-2.8500001,-32.737503
1763129381639,0.40378883,6.578468,7.4907312,0.0108428495,0.056963142,-0.03970621,0.35012087,-0.052081592,-0.143858,-6.9750004,-2.1000001,-34.10625
1763129381649,0.40378883,6.578468,7.4907312,0.09193515,0.091477,-0.087506376,0.35012087,-0.052081592,-0.143858,-6.9750004,-2.1000001,-34.10625
1763129381650,0.20458634,6.6089764,6.8979096,0.09193515,0.091477,-0.087506376,0.35012087,-0.052081592,-0.143858,-6.9750004,-2.1000001,-34.10625
1763129381662,0.20458634,6.6089764,6.8979096,0.09193515,0.091477,-0.087506376,0.35104895,-0.051458664,-0.14326523,-6.9750004,-2.1000001,-34.10625
1763129381662,0.20458634,6.6089764,6.8979096,0.09193515,0.091477,-0.087506376,0.35104895,-0.051458664,-0.14326523,-6.2812505,-0.01875,-35.2125
1763129381670,-0.21355942,6.663413,6.186643,0.09193515,0.091477,-0.087506376,0.35104895,-0.051458664,-0.14326523,-6.2812505,-0.01875,-35.2125
1763129381671,-0.21355942,6.663413,6.186643,0.06444623,-0.09453133,-0.14981459,0.35104895,-0.051458664,-0.14326523,-6.2812505,-0.01875,-35.2125
1763129381677,-0.21355942,6.663413,6.186643,0.06444623,-0.09453133,-0.14981459,0.35214537,-0.052193854,-0.14423418,-6.2812505,-0.01875,-35.2125
1763129381677,-0.21355942,6.663413,6.186643,0.06444623,-0.09453133,-0.14981459,0.35214537,-0.052193854,-0.14423418,-7.3500004,-1.3875,-34.10625
1763129381691,-0.21355942,6.663413,6.186643,-0.10415245,-0.16630794,-0.14172062,0.35214537,-0.052193854,-0.14423418,-7.3500004,-1.3875,-34.10625
1763129381692,-0.0735793,6.4683976,7.153343,-0.10415245,-0.16630794,-0.14172062,0.35214537,-0.052193854,-0.14423418,-7.3500004,-1.3875,-34.10625
1763129381698,-0.0735793,6.4683976,7.153343,-0.10415245,-0.16630794,-0.14172062,0.35214537,-0.052193854,-0.14423418,-7.1062503,-2.775,-35.325
1763129381699,-0.0735793,6.4683976,7.153343,-0.10415245,-0.16630794,-0.14172062,0.35240746,-0.053005375,-0.14613055,-7.1062503,-2.775,-35.325
1763129381712,-0.0735793,6.4683976,7.153343,-0.24297146,-0.02535089,-0.13148865,0.35240746,-0.053005375,-0.14613055,-7.1062503,-2.775,-35.325
1763129381713,-0.101694964,6.3601227,7.7479596,-0.24297146,-0.02535089,-0.13148865,0.35240746,-0.053005375,-0.14613055,-7.1062503,-2.775,-35.325
1763129381720,-0.101694964,6.3601227,7.7479596,-0.24297146,-0.02535089,-0.13148865,0.35026577,-0.052402426,-0.14762637,-7.1062503,-2.775,-35.325
1763129381721,-0.101694964,6.3601227,7.7479596,-0.24297146,-0.02535089,-0.13148865,0.35026577,-0.052402426,-0.14762637,-8.45625,-2.4375,-34.143753
1763129381733,-0.101694964,6.3601227,7.7479596,-0.2254091,0.07773254,-0.12767074,0.35026577,-0.052402426,-0.14762637,-8.45625,-2.4375,-34.143753
1763129381734,-0.42891344,6.0747786,7.768897,-0.2254091,0.07773254,-0.12767074,0.35026577,-0.052402426,-0.14762637,-8.45625,-2.4375,-34.143753
1763129381741,-0.42891344,6.0747786,7.768897,-0.2254091,0.07773254,-0.12767074,0.34775335,-0.050810006,-0.14891632,-8.45625,-2.4375,-34.143753
1763129381742,-0.42891344,6.0747786,7.768897,-0.2254091,0.07773254,-0.12767074,0.34775335,-0.050810006,-0.14891632,-6.7875004,-0.93750006,-34.050003
1763129381756,-0.42891344,6.0747786,7.768897,-0.14034618,0.045203995,-0.12980877,0.34775335,-0.050810006,-0.14891632,-6.7875004,-0.93750006,-34.050003
1763129381757,-0.54257256,6.065207,7.432107,-0.14034618,0.045203995,-0.12980877,0.34775335,-0.050810006,-0.14891632,-6.7875004,-0.93750006,-34.050003
1763129381757,-0.54257256,6.065207,7.432107,-0.14034618,0.045203995,-0.12980877,0.34575891,-0.04934724,-0.15109068,-6.7875004,-0.93750006,-34.050003
1763129381757,-0.54257256,6.065207,7.432107,-0.14034618,0.045203995,-0.12980877,0.34575891,-0.04934724,-0.15109068,-8.231251,-2.0812502,-36.0
