timestamp,accX,accY,accZ,gyroX,gyroY,gyroZ,rotX,rotY,rotZ,magX,magY,magZ
1763129266738,-2.9018958,8.199007,3.5252259,-0.54260063,-1.0485494,0.09728022,0.44088957,-0.25496185,-0.619145,3.4875002,-35.362503,-24.525002
1763129266741,-2.9018958,8.199007,3.5252259,-0.50121456,-1.3897173,0.18600832,0.44088957,-0.25496185,-0.619145,3.4875002,-35.362503,-24.525002
1763129266741,-2.9018958,8.199007,3.5252259,-0.50121456,-1.3897173,0.18600832,0.42903516,-0.2603461,-0.624334,3.4875002,-35.362503,-24.525002
1763129266741,-2.3102703,8.451449,3.9014974,-0.50121456,-1.3897173,0.18600832,0.42903516,-0.2603461,-0.624334,3.4875002,-35.362503,-24.525002
1763129266759,-2.3102703,8.451449,3.9014974,-0.50121456,-1.3897173,0.18600832,0.42903516,-0.2603461,-0.624334,8.493751,-32.1375,-27.093752
1763129266763,-2.3102703,8.451449,3.9014974,-0.44302967,-1.9020802,0.13744457,0.42903516,-0.2603461,-0.624334,8.493751,-32.1375,-27.093752
1763129266763,-2.3102703,8.451449,3.9014974,-0.44302967,-1.9020802,0.13744457,0.4141434,-0.26916215,-0.63174736,8.493751,-32.1375,-27.093752
1763129266764,-1.6157535,8.273184,3.342175,-0.44302967,-1.9020802,0.13744457,0.4141434,-0.26916215,-0.63174736,8.493751,-32.1375,-27.093752
1763129266778,-1.6157535,8.273184,3.342175,-0.44302967,-1.9020802,0.13744457,0.4141434,-0.26916215,-0.63174736,5.4187503,-31.3875,-26.38125
1763129266783,-1.6157535,8.273184,3.342175,-0.44302967,-1.9020802,0.13744457,0.39411893,-0.28063533,-0.6427475,5.4187503,-31.3875,-26.38125
1763129266784,-1.1964114,8.732008,2.7194428,-0.44302967,-1.9020802,0.13744457,0.39411893,-0.28063533,-0.6427475,5.4187503,-31.3875,-26.38125
1763129266784,-1.1964114,8.732008,2.7194428,-0.5752819,-2.6514585,-0.0377209,0.39411893,-0.28063533,-0.6427475,5.4187503,-31.3875,-26.38125
1763129266798,-1.1964114,8.732008,2.7194428,-0.5752819,-2.6514585,-0.0377209,0.39411893,-0.28063533,-0.6427475,4.0687504,-30.112501,-27.112501
1763129266804,-1.1964114,8.732008,2.7194428,-0.5752819,-2.6514585,-0.0377209,0.36752135,-0.29290953,-0.6571639,4.0687504,-30.112501,-27.112501
1763129266805,-1.1964114,8.732008,2.7194428,-0.9494366,-3.418094,-0.21517712,0.36752135,-0.29290953,-0.6571639,4.0687504,-30.112501,-27.112501
1763129266806,-0.77706915,8.459825,1.8921245,-0.9494366,-3.418094,-0.21517712,0.36752135,-0.29290953,-0.6571639,4.0687504,-30.112501,-27.112501
1763129266818,-0.77706915,8.459825,1.8921245,-0.9494366,-3.418094,-0.21517712,0.36752135,-0.29290953,-0.6571639,2.49375,-29.681252,-28.312502
1763129266825,-0.77706915,8.459825,1.8921245,-0.9494366,-3.418094,-0.21517712,0.32989952,-0.30741948,-0.6754708,2.49375,-29.681252,-28.312502
1763129266826,-0.77706915,8.459825,1.8921245,-1.5192207,-4.5271187,-0.2290743,0.32989952,-0.30741948,-0.6754708,2.49375,-29.681252,-28.312502
1763129266827,-0.64905316,7.7706914,4.002594,-1.5192207,-4.5271187,-0.2290743,0.32989952,-0.30741948,-0.6754708,2.49375,-29.681252,-28.312502
1763129266838,-0.64905316,7.7706914,4.002594,-1.5192207,-4.5271187,-0.2290743,0.32989952,-0.30741948,-0.6754708,-2.1375,-30.4125,-27.656252
1763129266847,-0.64905316,7.7706914,4.002594,-1.901622,-2.5992296,0.053603385,0.32989952,-0.30741948,-0.6754708,-2.1375,-30.4125,-27.656252
1763129266848,-0.41994038,7.8017983,10.448858,-1.901622,-2.5992296,0.053603385,0.32989952,-0.30741948,-0.6754708,-2.1375,-30.4125,-27.656252
1763129266859,-0.41994038,7.8017983,10.448858,-1.901622,-2.5992296,0.053603385,0.32989952,-0.30741948,-0.6754708,-1.25625,-29.41875,-28.125002
1763129266859,-0.41994038,7.8017983,10.448858,-1.901622,-2.5992296,0.053603385,0.30091316,-0.30901772,-0.6877055,-1.25625,-29.41875,-28.125002
1763129266867,1.0372887,5.725426,9.512667,-1.901622,-2.5992296,0.053603385,0.30091316,-0.30901772,-0.6877055,-1.25625,-29.41875,-28.125002
1763129266868,1.0372887,5.725426,9.512667,-1.751502,-0.6253728,0.5855139,0.30091316,-0.30901772,-0.6877055,-1.25625,-29.41875,-28.125002
1763129266877,1.0372887,5.725426,9.512667,-1.751502,-0.6253728,0.5855139,0.28164232,-0.3030124,-0.6951091,-1.25625,-29.41875,-28.125002
1763129266878,1.0372887,5.725426,9.512667,-1.751502,-0.6253728,0.5855139,0.28164232,-0.3030124,-0.6951091,-3.43125,-29.306252,-30.000002
1763129266887,1.0372887,5.725426,9.512667,-1.647655,-0.09560034,0.7157808,0.28164232,-0.3030124,-0.6951091,-3.43125,-29.306252,-30.000002
1763129266888,0.6843473,5.151149,8.900104,-1.647655,-0.09560034,0.7157808,0.28164232,-0.3030124,-0.6951091,-3.43125,-29.306252,-30.000002
1763129266897,0.6843473,5.151149,8.900104,-1.647655,-0.09560034,0.7157808,0.28164232,-0.3030124,-0.6951091,-2.9250002,-26.925001,-29.41875
1763129266898,0.6843473,5.151149,8.900104,-1.647655,-0.09560034,0.7157808,0.26588807,-0.2949975,-0.70005393,-2.9250002,-26.925001,-29.41875
1763129266909,-0.7531409,6.256035,7.765308,-1.647655,-0.09560034,0.7157808,0.26588807,-0.2949975,-0.70005393,-2.9250002,-26.925001,-29.41875
1763129266910,-0.7531409,6.256035,7.765308,-1.3416117,0.15042545,0.77411836,0.26588807,-0.2949975,-0.70005393,-2.9250002,-26.925001,-29.41875
1763129266918,-0.7531409,6.256035,7.765308,-1.3416117,0.15042545,0.77411836,0.25405544,-0.28738555,-0.70237315,-2.9250002,-26.925001,-29.41875
1763129266919,-0.7531409,6.256035,7.765308,-1.3416117,0.15042545,0.77411836,0.25405544,-0.28738555,-0.70237315,-3.6375,-28.2,-28.5375
1763129266930,-0.7531409,6.256035,7.765308,-0.98868465,-0.057574004,0.84360427,0.25405544,-0.28738555,-0.70237315,-3.6375,-28.2,-28.5375
1763129266930,-1.1120644,7.298109,6.9822564,-0.98868465,-0.057574004,0.84360427,0.25405544,-0.28738555,-0.70237315,-3.6375,-28.2,-28.5375
1763129266938,-1.1120644,7.298109,6.9822564,-0.98868465,-0.057574004,0.84360427,0.24441352,-0.2827803,-0.7011707,-3.6375,-28.2,-28.5375
1763129266939,-1.1120644,7.298109,6.9822564,-0.98868465,-0.057574004,0.84360427,0.24441352,-0.2827803,-0.7011707,-4.65,-27.487501,-28.575
1763129266951,-0.23629123,7.4476604,6.863812,-0.98868465,-0.057574004,0.84360427,0.24441352,-0.2827803,-0.7011707,-4.65,-27.487501,-28.575
1763129266951,-0.23629123,7.4476604,6.863812,-0.8969022,-0.32268932,0.72479105,0.24441352,-0.2827803,-0.7011707,-4.65,-27.487501,-28.575
1763129266957,-0.23629123,7.4476604,6.863812,-0.8969022,-0.32268932,0.72479105,0.2349092,-0.2796265,-0.6990693,-4.65,-27.487501,-28.575
1763129266958,-0.23629123,7.4476604,6.863812,-0.8969022,-0.32268932,0.72479105,0.2349092,-0.2796265,-0.6990693,-10.575001,-31.3875,-24.300001
1763129266972,-0.23629123,7.4476604,6.863812,-0.95004743,-0.33124143,0.44944376,0.2349092,-0.2796265,-0.6990693,-10.575001,-31.3875,-24.300001
1763129266972,0.4989035,7.2083783,7.64447,-0.95004743,-0.33124143,0.44944376,0.2349092,-0.2796265,-0.6990693,-10.575001,-31.3875,-24.300001
1763129266978,0.4989035,7.2083783,7.64447,-0.95004743,-0.33124143,0.44944376,0.22583611,-0.2755133,-0.6983939,-10.575001,-31.3875,-24.300001
1763129266978,0.4989035,7.2083783,7.64447,-0.95004743,-0.33124143,0.44944376,0.22583611,-0.2755133,-0.6983939,-6.8437505,-25.743752,-28.181252
1763129266993,0.4989035,7.2083783,7.64447,-0.8338304,-0.19853105,0.17287473,0.22583611,-0.2755133,-0.6983939,-6.8437505,-25.743752,-28.181252
1763129266994,0.802792,6.712466,8.312666,-0.8338304,-0.19853105,0.17287473,0.22583611,-0.2755133,-0.6983939,-6.8437505,-25.743752,-28.181252
1763129266998,0.802792,6.712466,8.312666,-0.8338304,-0.19853105,0.17287473,0.21872705,-0.27100968,-0.69951975,-6.8437505,-25.743752,-28.181252
1763129266999,0.802792,6.712466,8.312666,-0.8338304,-0.19853105,0.17287473,0.21872705,-0.27100968,-0.69951975,-3.9375002,-23.2875,-27.35625
1763129267014,0.802792,6.712466,8.312666,-0.46456265,-0.12110394,-0.02367101,0.21872705,-0.27100968,-0.69951975,-3.9375002,-23.2875,-27.35625
1763129267016,0.63529444,6.396613,8.715857,-0.46456265,-0.12110394,-0.02367101,0.21872705,-0.27100968,-0.69951975,-3.9375002,-23.2875,-27.35625
1763129267019,0.63529444,6.396613,8.715857,-0.46456265,-0.12110394,-0.02367101,0.21458872,-0.26848555,-0.7016111,-3.9375002,-23.2875,-27.35625
1763129267020,0.63529444,6.396613,8.715857,-0.46456265,-0.12110394,-0.02367101,0.21458872,-0.26848555,-0.7016111,-5.7937503,-24.225,-29.775002
1763129267034,0.63529444,6.396613,8.715857,-0.0736092,0.0015271619,-0.07467822,0.21458872,-0.26848555,-0.7016111,-5.7937503,-24.225,-29.775002
1763129267036,0.19980069,6.1208405,8.6141615,-0.0736092,0.0015271619,-0.07467822,0.21458872,-0.26848555,-0.7016111,-5.7937503,-24.225,-29.775002
1763129267038,0.19980069,6.1208405,8.6141615,-0.0736092,0.0015271619,-0.07467822,0.21376666,-0.2679979,-0.7032608,-5.7937503,-24.225,-29.775002
1763129267039,0.19980069,6.1208405,8.6141615,-0.0736092,0.0015271619,-0.07467822,0.21376666,-0.2679979,-0.7032608,-5.625,-23.85,-28.312502
1763129267056,0.19980069,6.1208405,8.6141615,0.24770567,0.069485866,-0.016493348,0.21376666,-0.2679979,-0.7032608,-5.625,-23.85,-28.312502
1763129267057,0.2213361,6.3996043,7.8693953,0.24770567,0.069485866,-0.016493348,0.21376666,-0.2679979,-0.7032608,-5.625,-23.85,-28.312502
1763129267059,0.2213361,6.3996043,7.8693953,0.24770567,0.069485866,-0.016493348,0.21535066,-0.26952884,-0.70367783,-5.625,-23.85,-28.312502
1763129267060,0.2213361,6.3996043,7.8693953,0.24770567,0.069485866,-0.016493348,0.21535066,-0.26952884,-0.70367783,-5.925,-25.2,-27.13125
1763129267078,0.2213361,6.3996043,7.8693953,0.24770567,0.069485866,-0.016493348,0.21812485,-0.27238888,-0.7030865,-5.925,-25.2,-27.13125
1763129267079,0.2213361,6.3996043,7.8693953,0.41187558,0.022601997,-0.038789913,0.21812485,-0.27238888,-0.7030865,-5.925,-25.2,-27.13125
1763129267080,0.2213361,6.3996043,7.8693953,0.41187558,0.022601997,-0.038789913,0.21812485,-0.27238888,-0.7030865,-4.7625003,-25.25625,-27.225
1763129267081,0.509073,6.739385,6.943971,0.41187558,0.022601997,-0.038789913,0.21812485,-0.27238888,-0.7030865,-4.7625003,-25.25625,-27.225
1763129267099,0.509073,6.739385,6.943971,0.41187558,0.022601997,-0.038789913,0.22043106,-0.27499056,-0.7025306,-4.7625003,-25.25625,-27.225
1763129267101,0.509073,6.739385,6.943971,0.33811367,-0.074830934,-0.13087778,0.22043106,-0.27499056,-0.7025306,-4.7625003,-25.25625,-27.225
1763129267102,0.6161518,6.9296145,6.3678994,0.33811367,-0.074830934,-0.13087778,0.22043106,-0.27499056,-0.7025306,-4.7625003,-25.25625,-27.225
1763129267104,0.6161518,6.9296145,6.3678994,0.33811367,-0.074830934,-0.13087778,0.22043106,-0.27499056,-0.7025306,-6.3750005,-25.612501,-27.6
1763129267117,0.6161518,6.9296145,6.3678994,0.33811367,-0.074830934,-0.13087778,0.22043106,-0.27499056,-0.7025306,-6.4875,-28.050001,-27.300001
1763129267118,0.49471608,6.8261247,6.3924255,0.33811367,-0.074830934,-0.13087778,0.22043106,-0.27499056,-0.7025306,-6.4875,-28.050001,-27.300001
1763129267119,0.49471608,6.8261247,6.3924255,0.33811367,-0.074830934,-0.13087778,0.22132696,-0.27595052,-0.7023928,-6.4875,-28.050001,-27.300001
1763129267120,0.49471608,6.8261247,6.3924255,0.1036943,-0.11957678,-0.17272201,0.22132696,-0.27595052,-0.7023928,-6.4875,-28.050001,-27.300001
1763129267138,0.49471608,6.8261247,6.3924255,0.1036943,-0.11957678,-0.17272201,0.22132696,-0.27595052,-0.7023928,-5.4375,-27.337502,-28.087502
1763129267140,0.49471608,6.8261247,6.3924255,0.1036943,-0.11957678,-0.17272201,0.22095531,-0.27534118,-0.7028948,-5.4375,-27.337502,-28.087502
1763129267141,0.49471608,6.8261247,6.3924255,-0.09926552,-0.108886644,-0.17088942,0.22095531,-0.27534118,-0.7028948,-5.4375,-27.337502,-28.087502
1763129267143,0.36490545,6.602994,6.8817577,-0.09926552,-0.108886644,-0.17088942,0.22095531,-0.27534118,-0.7028948,-5.4375,-27.337502,-28.087502
1763129267157,0.36490545,6.602994,6.8817577,-0.09926552,-0.108886644,-0.17088942,0.22095531,-0.27534118,-0.7028948,-7.0312505,-26.906252,-29.41875
1763129267161,0.36490545,6.602994,6.8817577,-0.13026692,-0.064904384,-0.17394374,0.22095531,-0.27534118,-0.7028948,-7.0312505,-26.906252,-29.41875
1763129267162,0.36490545,6.602994,6.8817577,-0.13026692,-0.064904384,-0.17394374,0.22041659,-0.27430484,-0.7039914,-7.0312505,-26.906252,-29.41875
1763129267163,0.31286156,6.524031,7.5344005,-0.13026692,-0.064904384,-0.17394374,0.22041659,-0.27430484,-0.7039914,-7.0312505,-26.906252,-29.41875
1763129267179,0.31286156,6.524031,7.5344005,-0.13026692,-0.064904384,-0.17394374,0.22041659,-0.27430484,-0.7039914,-5.1000004,-25.500002,-27.88125
1763129267182,0.31286156,6.524031,7.5344005,-0.0074830935,-0.0108428495,-0.19776747,0.22041659,-0.27430484,-0.7039914,-5.1000004,-25.500002,-27.88125
1763129267182,0.31286156,6.524031,7.5344005,-0.0074830935,-0.0108428495,-0.19776747,0.22080703,-0.2738882,-0.70538867,-5.1000004,-25.500002,-27.88125
1763129267183,0.2536392,6.5312095,7.7012997,-0.0074830935,-0.0108428495,-0.19776747,0.22080703,-0.2738882,-0.70538867,-5.1000004,-25.500002,-27.88125
1763129267199,0.2536392,6.5312095,7.7012997,-0.0074830935,-0.0108428495,-0.19776747,0.22080703,-0.2738882,-0.70538867,-6.05625,-23.625,-28.050001
1763129267202,0.2536392,6.5312095,7.7012997,0.14263692,-0.014355322,-0.23014331,0.22080703,-0.2738882,-0.70538867,-6.05625,-23.625,-28.050001
1763129267203,0.2536392,6.5312095,7.7012997,0.14263692,-0.014355322,-0.23014331,0.22214682,-0.2745558,-0.70673484,-6.05625,-23.625,-28.050001
1763129267203,0.07956135,6.506683,7.4494553,0.14263692,-0.014355322,-0.23014331,0.22214682,-0.2745558,-0.70673484,-6.05625,-23.625,-28.050001
1763129267217,0.07956135,6.506683,7.4494553,0.14263692,-0.014355322,-0.23014331,0.22214682,-0.2745558,-0.70673484,-9.337501,-27.750002,-27.31875
1763129267224,0.07956135,6.506683,7.4494553,0.18371758,-0.045051277,-0.21792601,0.22214682,-0.2745558,-0.70673484,-9.337501,-27.750002,-27.31875
1763129267225,0.07956135,6.506683,7.4494553,0.18371758,-0.045051277,-0.21792601,0.22360043,-0.2756916,-0.70778984,-9.337501,-27.750002,-27.31875
1763129267226,-0.19262223,6.3696938,7.160522,0.18371758,-0.045051277,-0.21792601,0.22360043,-0.2756916,-0.70778984,-9.337501,-27.750002,-27.31875
1763129267238,-0.19262223,6.3696938,7.160522,0.18371758,-0.045051277,-0.21792601,0.22360043,-0.2756916,-0.70778984,-6.1687503,-26.062502,-26.98125
1763129267244,-0.19262223,6.3696938,7.160522,0.12202024,-0.065667965,-0.13668099,0.22360043,-0.2756916,-0.70778984,-6.1687503,-26.062502,-26.98125
1763129267245,-0.19262223,6.3696938,7.160522,0.12202024,-0.065667965,-0.13668099,0.2243846,-0.27661574,-0.7084301,-6.1687503,-26.062502,-26.98125
1763129267247,-0.27876383,6.3397837,6.9649086,0.12202024,-0.065667965,-0.13668099,0.2243846,-0.27661574,-0.7084301,-6.1687503,-26.062502,-26.98125
1763129267258,-0.27876383,6.3397837,6.9649086,0.12202024,-0.065667965,-0.13668099,0.2243846,-0.27661574,-0.7084301,-5.11875,-25.987501,-29.718752
1763129267266,-0.27876383,6.3397837,6.9649086,0.037110034,-0.035124727,-0.057268575,0.2243846,-0.27661574,-0.7084301,-5.11875,-25.987501,-29.718752
1763129267267,0.03708875,6.52104,7.1581287,0.037110034,-0.035124727,-0.057268575,0.2243846,-0.27661574,-0.7084301,-5.11875,-25.987501,-29.718752
1763129267279,0.03708875,6.52104,7.1581287,0.037110034,-0.035124727,-0.057268575,0.22471248,-0.2768546,-0.7085983,-5.11875,-25.987501,-29.718752
1763129267281,0.03708875,6.52104,7.1581287,0.037110034,-0.035124727,-0.057268575,0.22471248,-0.2768546,-0.7085983,-6.8812504,-27.0375,-28.743752
1763129267288,0.03708875,6.52104,7.1581287,-0.017409647,-9.162972E-4,-0.06887501,0.22471248,-0.2768546,-0.7085983,-6.8812504,-27.0375,-28.743752
1763129267289,0.02871387,6.4731836,7.1892357,-0.017409647,-9.162972E-4,-0.06887501,0.22471248,-0.2768546,-0.7085983,-6.8812504,-27.0375,-28.743752
1763129267297,0.02871387,6.4731836,7.1892357,-0.017409647,-9.162972E-4,-0.06887501,0.22489955,-0.27651212,-0.70894825,-6.8812504,-27.0375,-28.743752
1763129267298,0.02871387,6.4731836,7.1892357,-0.017409647,-9.162972E-4,-0.06887501,0.22489955,-0.27651212,-0.70894825,-6.0375004,-26.681252,-29.19375
1763129267307,0.02871387,6.4731836,7.1892357,-0.018173227,0.007941242,-0.06536253,0.22489955,-0.27651212,-0.70894825,-6.0375004,-26.681252,-29.19375
1763129267308,-0.2219343,6.4474607,7.076773,-0.018173227,0.007941242,-0.06536253,0.22489955,-0.27651212,-0.70894825,-6.0375004,-26.681252,-29.19375
1763129267317,-0.2219343,6.4474607,7.076773,-0.018173227,0.007941242,-0.06536253,0.22509964,-0.27613014,-0.7093247,-6.0375004,-26.681252,-29.19375
1763129267318,-0.2219343,6.4474607,7.076773,-0.018173227,0.007941242,-0.06536253,0.22509964,-0.27613014,-0.7093247,-6.4125004,-26.775002,-28.5375
1763129267330,-0.2219343,6.4474607,7.076773,-0.04535671,-0.011911863,-0.0033597562,0.22509964,-0.27613014,-0.7093247,-6.4125004,-26.775002,-28.5375
1763129267331,-0.17527425,6.4737816,7.0223365,-0.04535671,-0.011911863,-0.0033597562,0.22509964,-0.27613014,-0.7093247,-6.4125004,-26.775002,-28.5375
1763129267338,-0.17527425,6.4737816,7.0223365,-0.04535671,-0.011911863,-0.0033597562,0.2249107,-0.27574638,-0.70931643,-6.4125004,-26.775002,-28.5375
1763129267339,-0.17527425,6.4737816,7.0223365,-0.04535671,-0.011911863,-0.0033597562,0.2249107,-0.27574638,-0.70931643,-4.9500003,-25.612501,-27.956251
1763129267350,-0.17527425,6.4737816,7.0223365,-0.064140804,-0.0010690134,0.031306818,0.2249107,-0.27574638,-0.70931643,-4.9500003,-25.612501,-27.956251
1763129267351,0.12143575,6.567102,7.1246295,-0.064140804,-0.0010690134,0.031306818,0.2249107,-0.27574638,-0.70931643,-4.9500003,-25.612501,-27.956251
1763129267358,0.12143575,6.567102,7.1246295,-0.064140804,-0.0010690134,0.031306818,0.22461614,-0.27522838,-0.70903516,-4.9500003,-25.612501,-27.956251
1763129267359,0.12143575,6.567102,7.1246295,-0.064140804,-0.0010690134,0.031306818,0.22461614,-0.27522838,-0.70903516,-4.7625003,-25.25625,-27.69375
1763129267371,0.12143575,6.567102,7.1246295,-0.045509428,-0.03940078,-0.0108428495,0.22461614,-0.27522838,-0.70903516,-4.7625003,-25.25625,-27.69375
1763129267373,0.360718,6.771688,6.951748,-0.045509428,-0.03940078,-0.0108428495,0.22461614,-0.27522838,-0.70903516,-4.7625003,-25.25625,-27.69375
1763129267380,0.360718,6.771688,6.951748,-0.045509428,-0.03940078,-0.0108428495,0.22420536,-0.27505735,-0.7090861,-4.7625003,-25.25625,-27.69375
1763129267381,0.360718,6.771688,6.951748,-0.045509428,-0.03940078,-0.0108428495,0.22420536,-0.27505735,-0.7090861,-5.7937503,-26.625002,-29.437502
1763129267391,0.360718,6.771688,6.951748,-0.032833982,-0.13713914,-0.116217025,0.22420536,-0.27505735,-0.7090861,-5.7937503,-26.625002,-29.437502
1763129267392,0.465404,6.943971,6.77767,-0.032833982,-0.13713914,-0.116217025,0.22420536,-0.27505735,-0.7090861,-5.7937503,-26.625002,-29.437502
1763129267397,0.465404,6.943971,6.77767,-0.032833982,-0.13713914,-0.116217025,0.22357883,-0.27534038,-0.7096889,-5.7937503,-26.625002,-29.437502
1763129267398,0.465404,6.943971,6.77767,-0.032833982,-0.13713914,-0.116217025,0.22357883,-0.27534038,-0.7096889,-5.55,-25.9125,-27.900002
1763129267413,0.465404,6.943971,6.77767,-0.108123064,-0.13591741,-0.17944153,0.22357883,-0.27534038,-0.7096889,-5.55,-25.9125,-27.900002
1763129267415,0.12801601,6.3236322,6.7495546,-0.108123064,-0.13591741,-0.17944153,0.22357883,-0.27534038,-0.7096889,-5.55,-25.9125,-27.900002
1763129267418,0.12801601,6.3236322,6.7495546,-0.108123064,-0.13591741,-0.17944153,0.22281612,-0.27486342,-0.7105915,-5.55,-25.9125,-27.900002
1763129267420,0.12801601,6.3236322,6.7495546,-0.108123064,-0.13591741,-0.17944153,0.22281612,-0.27486342,-0.7105915,-4.9125004,-25.931252,-27.54375
1763129267434,0.12801601,6.3236322,6.7495546,-0.28405213,-0.16065744,-0.024587307,0.22281612,-0.27486342,-0.7105915,-4.9125004,-25.931252,-27.54375
1763129267435,-0.35533416,5.910272,6.4642105,-0.28405213,-0.16065744,-0.024587307,0.22281612,-0.27486342,-0.7105915,-4.9125004,-25.931252,-27.54375
1763129267438,-0.35533416,5.910272,6.4642105,-0.28405213,-0.16065744,-0.024587307,0.2201176,-0.2736158,-0.7115165,-4.9125004,-25.931252,-27.54375
1763129267439,-0.35533416,5.910272,6.4642105,-0.28405213,-0.16065744,-0.024587307,0.2201176,-0.2736158,-0.7115165,-4.40625,-24.225,-29.062502
1763129267455,-0.35533416,5.910272,6.4642105,-0.44211337,-0.23976442,0.17653993,0.2201176,-0.2736158,-0.7115165,-4.40625,-24.225,-29.062502
1763129267456,-0.21714866,6.6311097,7.024131,-0.44211337,-0.23976442,0.17653993,0.2201176,-0.2736158,-0.7115165,-4.40625,-24.225,-29.062502
1763129267459,-0.21714866,6.6311097,7.024131,-0.44211337,-0.23976442,0.17653993,0.21534628,-0.27205008,-0.7117612,-4.40625,-24.225,-29.062502
1763129267460,-0.21714866,6.6311097,7.024131,-0.44211337,-0.23976442,0.17653993,0.21534628,-0.27205008,-0.7117612,-5.9625,-25.687502,-28.518751
1763129267475,0.40558344,6.559923,7.717451,-0.44211337,-0.23976442,0.17653993,0.21534628,-0.27205008,-0.7117612,-5.9625,-25.687502,-28.518751
1763129267477,0.40558344,6.559923,7.717451,-0.38912088,-0.17501275,0.19288056,0.21534628,-0.27205008,-0.7117612,-5.9625,-25.687502,-28.518751
1763129267478,0.40558344,6.559923,7.717451,-0.38912088,-0.17501275,0.19288056,0.21150401,-0.2704571,-0.7112619,-5.9625,-25.687502,-28.518751
1763129267479,0.40558344,6.559923,7.717451,-0.38912088,-0.17501275,0.19288056,0.21150401,-0.2704571,-0.7112619,-6.2625003,-25.29375,-29.325
1763129267498,0.40558344,6.559923,7.717451,-0.38912088,-0.17501275,0.19288056,0.20879816,-0.2695534,-0.71174186,-6.2625003,-25.29375,-29.325
1763129267499,0.40558344,6.559923,7.717451,-0.24999641,-0.12935062,0.062460925,0.20879816,-0.2695534,-0.71174186,-6.2625003,-25.29375,-29.325
1763129267501,0.40558344,6.559923,7.717451,-0.24999641,-0.12935062,0.062460925,0.20879816,-0.2695534,-0.71174186,-5.6062503,-24.0,-28.10625
1763129267502,0.6538388,6.3888364,7.752745,-0.24999641,-0.12935062,0.062460925,0.20879816,-0.2695534,-0.71174186,-5.6062503,-24.0,-28.10625
1763129267518,0.6538388,6.3888364,7.752745,-0.1924224,-0.091782436,-0.032223117,0.20879816,-0.2695534,-0.71174186,-5.6062503,-24.0,-28.10625
1763129267519,0.6538388,6.3888364,7.752745,-0.1924224,-0.091782436,-0.032223117,0.20686804,-0.26870778,-0.7127595,-5.6062503,-24.0,-28.10625
1763129267520,0.293719,6.3218374,7.5457664,-0.1924224,-0.091782436,-0.032223117,0.20686804,-0.26870778,-0.7127595,-5.6062503,-24.0,-28.10625
1763129267522,0.293719,6.3218374,7.5457664,-0.1924224,-0.091782436,-0.032223117,0.20686804,-0.26870778,-0.7127595,-5.9625,-23.2875,-29.156252
1763129267539,0.293719,6.3218374,7.5457664,-0.1924224,-0.091782436,-0.032223117,0.20521346,-0.26770088,-0.7133287,-5.9625,-23.2875,-29.156252
1763129267540,0.293719,6.3218374,7.5457664,-0.18952079,-0.07024945,-0.0029016077,0.20521346,-0.26770088,-0.7133287,-5.9625,-23.2875,-29.156252
1763129267541,-0.025722843,6.099903,7.585248,-0.18952079,-0.07024945,-0.0029016077,0.20521346,-0.26770088,-0.7133287,-5.9625,-23.2875,-29.156252
1763129267542,-0.025722843,6.099903,7.585248,-0.18952079,-0.07024945,-0.0029016077,0.20521346,-0.26770088,-0.7133287,-6.58125,-23.5125,-28.368752
1763129267557,-0.025722843,6.099903,7.585248,-0.18952079,-0.07024945,-0.0029016077,0.20521346,-0.26770088,-0.7133287,-7.275,-24.6375,-28.893751
1763129267559,-0.025722843,6.099903,7.585248,-0.18952079,-0.07024945,-0.0029016077,0.20375194,-0.26662108,-0.7135489,-7.275,-24.6375,-28.893751
1763129267560,-0.025722843,6.099903,7.585248,-0.17669263,-0.030237807,0.05650499,0.20375194,-0.26662108,-0.7135489,-7.275,-24.6375,-28.893751
1763129267563,-0.04426722,6.0215383,7.698907,-0.17669263,-0.030237807,0.05650499,0.20375194,-0.26662108,-0.7135489,-7.275,-24.6375,-28.893751
1763129267579,-0.04426722,6.0215383,7.698907,-0.17669263,-0.030237807,0.05650499,0.20375194,-0.26662108,-0.7135489,-7.14375,-25.556252,-27.993752
1763129267580,-0.04426722,6.0215383,7.698907,-0.13225223,0.004734202,0.09789108,0.20375194,-0.26662108,-0.7135489,-7.14375,-25.556252,-27.993752
1763129267582,-0.04426722,6.0215383,7.698907,-0.13225223,0.004734202,0.09789108,0.20265998,-0.26575217,-0.71343,-7.14375,-25.556252,-27.993752
1763129267583,0.06699903,6.0837517,7.70788,-0.13225223,0.004734202,0.09789108,0.20265998,-0.26575217,-0.71343,-7.14375,-25.556252,-27.993752
1763129267598,0.06699903,6.0837517,7.70788,-0.13225223,0.004734202,0.09789108,0.20265998,-0.26575217,-0.71343,-6.1125,-24.0375,-28.3875
1763129267602,0.06699903,6.0837517,7.70788,-0.05329795,0.0030543238,0.10690133,0.20265998,-0.26575217,-0.71343,-6.1125,-24.0375,-28.3875
1763129267603,0.06699903,6.0837517,7.70788,-0.05329795,0.0030543238,0.10690133,0.20205091,-0.26551345,-0.71297824,-6.1125,-24.0375,-28.3875
1763129267604,0.27756742,6.1914287,7.676175,-0.05329795,0.0030543238,0.10690133,0.20205091,-0.26551345,-0.71297824,-6.1125,-24.0375,-28.3875
1763129267619,0.27756742,6.1914287,7.676175,-0.05329795,0.0030543238,0.10690133,0.20205091,-0.26551345,-0.71297824,-6.4500003,-25.087502,-28.518751
1763129267623,0.27756742,6.1914287,7.676175,0.022907428,-0.019394957,0.08811724,0.20205091,-0.26551345,-0.71297824,-6.4500003,-25.087502,-28.518751
1763129267624,0.27756742,6.1914287,7.676175,0.022907428,-0.019394957,0.08811724,0.2018347,-0.26597193,-0.71238196,-6.4500003,-25.087502,-28.518751
1763129267626,0.34576288,6.261419,7.5673018,0.022907428,-0.019394957,0.08811724,0.2018347,-0.26597193,-0.71238196,-6.4500003,-25.087502,-28.518751
1763129267637,0.34576288,6.261419,7.5673018,0.022907428,-0.019394957,0.08811724,0.2018347,-0.26597193,-0.71238196,-6.24375,-24.712502,-28.85625
1763129267643,0.34576288,6.261419,7.5673018,0.05589413,-0.022296565,0.06093376,0.2018347,-0.26597193,-0.71238196,-6.24375,-24.712502,-28.85625
1763129267644,0.41455653,6.2997036,7.435098,0.05589413,-0.022296565,0.06093376,0.2018347,-0.26597193,-0.71238196,-6.24375,-24.712502,-28.85625
1763129267658,0.41455653,6.2997036,7.435098,0.05589413,-0.022296565,0.06093376,0.2018347,-0.26597193,-0.71238196,-7.9500003,-26.212502,-27.150002
1763129267665,0.41455653,6.2997036,7.435098,0.05589413,-0.022296565,0.06093376,0.20243344,-0.26642427,-0.71096396,-7.9500003,-26.212502,-27.150002
1763129267666,0.41455653,6.2997036,7.435098,0.02046397,-0.013591741,0.029168794,0.20243344,-0.26642427,-0.71096396,-7.9500003,-26.212502,-27.150002
1763129267667,0.41455653,6.2997036,7.435098,0.02046397,-0.013591741,0.029168794,0.20331247,-0.2664349,-0.7089941,-7.9500003,-26.212502,-27.150002
1763129267669,0.49292147,6.3086767,7.23111,0.02046397,-0.013591741,0.029168794,0.20331247,-0.2664349,-0.7089941,-7.9500003,-26.212502,-27.150002
1763129267680,0.49292147,6.3086767,7.23111,0.02046397,-0.013591741,0.029168794,0.20331247,-0.2664349,-0.7089941,-7.2562504,-24.937502,-27.581251
1763129267685,0.39900318,6.3009005,7.213164,0.02046397,-0.013591741,0.029168794,0.20331247,-0.2664349,-0.7089941,-7.2562504,-24.937502,-27.581251
1763129267686,0.39900318,6.3009005,7.213164,-0.053908817,-0.0140498895,0.016187917,0.20331247,-0.2664349,-0.7089941,-7.2562504,-24.937502,-27.581251
1763129267698,0.39900318,6.3009005,7.213164,-0.053908817,-0.0140498895,0.016187917,0.20423397,-0.26577738,-0.7061755,-7.2562504,-24.937502,-27.581251
1763129267699,0.39900318,6.3009005,7.213164,-0.053908817,-0.0140498895,0.016187917,0.20423397,-0.26577738,-0.7061755,-6.2625003,-23.118752,-28.237501
1763129267706,0.39900318,6.3009005,7.213164,-0.11423171,-0.0033597562,0.026725333,0.20423397,-0.26577738,-0.7061755,-6.2625003,-23.118752,-28.237501
1763129267707,0.39361933,6.3122663,7.3585277,-0.11423171,-0.0033597562,0.026725333,0.20423397,-0.26577738,-0.7061755,-6.2625003,-23.118752,-28.237501
1763129267717,0.39361933,6.3122663,7.3585277,-0.11423171,-0.0033597562,0.026725333,0.20506024,-0.26445153,-0.7031791,-6.2625003,-23.118752,-28.237501
1763129267718,0.39361933,6.3122663,7.3585277,-0.11423171,-0.0033597562,0.026725333,0.20506024,-0.26445153,-0.7031791,-9.675,-26.475,-28.050001
1763129267730,0.39361933,6.3122663,7.3585277,-0.099723674,-0.0368046,0.0074830935,0.20506024,-0.26445153,-0.7031791,-9.675,-26.475,-28.050001
1763129267731,0.51565325,6.3792653,7.450053,-0.099723674,-0.0368046,0.0074830935,0.20506024,-0.26445153,-0.7031791,-9.675,-26.475,-28.050001
1763129267739,0.51565325,6.3792653,7.450053,-0.099723674,-0.0368046,0.0074830935,0.20547487,-0.263496,-0.7009556,-9.675,-26.475,-28.050001
1763129267740,0.51565325,6.3792653,7.450053,-0.099723674,-0.0368046,0.0074830935,0.20547487,-0.263496,-0.7009556,-7.275,-24.6375,-29.19375
1763129267748,0.51565325,6.3792653,7.450053,-0.051618073,-0.08048143,-0.059559315,0.20547487,-0.263496,-0.7009556,-7.275,-24.6375,-29.19375
1763129267750,0.59641105,6.3541408,7.4452677,-0.051618073,-0.08048143,-0.059559315,0.20547487,-0.263496,-0.7009556,-7.275,-24.6375,-29.19375
1763129267758,0.59641105,6.3541408,7.4452677,-0.051618073,-0.08048143,-0.059559315,0.2058607,-0.26320377,-0.6992405,-7.275,-24.6375,-29.19375
1763129267759,0.59641105,6.3541408,7.4452677,-0.051618073,-0.08048143,-0.059559315,0.2058607,-0.26320377,-0.6992405,-7.7625003,-25.706251,-28.143751
1763129267771,0.59641105,6.3541408,7.4452677,-0.060475614,-0.08002329,-0.09590577,0.2058607,-0.26320377,-0.6992405,-7.7625003,-25.706251,-28.143751
1763129267772,0.41336012,6.1531434,7.4590263,-0.060475614,-0.08002329,-0.09590577,0.2058607,-0.26320377,-0.6992405,-7.7625003,-25.706251,-28.143751
1763129267780,0.41336012,6.1531434,7.4590263,-0.060475614,-0.08002329,-0.09590577,0.20610556,-0.2628907,-0.6979452,-7.7625003,-25.706251,-28.143751
1763129267781,0.41336012,6.1531434,7.4590263,-0.060475614,-0.08002329,-0.09590577,0.20610556,-0.2628907,-0.6979452,-8.962501,-25.500002,-27.0375
1763129267790,0.41336012,6.1531434,7.4590263,-0.12843432,-0.03695732,-0.062002774,0.20610556,-0.2628907,-0.6979452,-8.962501,-25.500002,-27.0375
1763129267791,0.27158538,6.109474,7.4512496,-0.12843432,-0.03695732,-0.062002774,0.20610556,-0.2628907,-0.6979452,-8.962501,-25.500002,-27.0375
1763129267797,0.27158538,6.109474,7.4512496,-0.12843432,-0.03695732,-0.062002774,0.20573755,-0.26184562,-0.69771314,-8.962501,-25.500002,-27.0375
1763129267798,0.27158538,6.109474,7.4512496,-0.12843432,-0.03695732,-0.062002774,0.20573755,-0.26184562,-0.69771314,-7.4812503,-25.0125,-28.85625
1763129267812,0.27158538,6.109474,7.4512496,-0.16019928,-0.04138609,-0.030390523,0.20573755,-0.26184562,-0.69771314,-7.4812503,-25.0125,-28.85625
1763129267813,0.3379862,6.2051873,7.495517,-0.16019928,-0.04138609,-0.030390523,0.20573755,-0.26184562,-0.69771314,-7.4812503,-25.0125,-28.85625
1763129267818,0.3379862,6.2051873,7.495517,-0.16019928,-0.04138609,-0.030390523,0.20525324,-0.2604765,-0.69730514,-7.4812503,-25.0125,-28.85625
1763129267819,0.3379862,6.2051873,7.495517,-0.16019928,-0.04138609,-0.030390523,0.20525324,-0.2604765,-0.69730514,-7.6125,-24.225,-28.63125
1763129267832,0.3379862,6.2051873,7.495517,-0.14370593,-0.09926552,-0.07925971,0.20525324,-0.2604765,-0.69730514,-7.6125,-24.225,-28.63125
1763129267833,0.41814575,6.200402,7.476374,-0.14370593,-0.09926552,-0.07925971,0.20525324,-0.2604765,-0.69730514,-7.6125,-24.225,-28.63125
1763129267839,0.41814575,6.200402,7.476374,-0.14370593,-0.09926552,-0.07925971,0.20480636,-0.25948828,-0.6967062,-7.6125,-24.225,-28.63125
1763129267840,0.41814575,6.200402,7.476374,-0.14370593,-0.09926552,-0.07925971,0.20480636,-0.25948828,-0.6967062,-8.85,-26.118752,-27.750002
1763129267853,0.41814575,6.200402,7.476374,-0.1565341,-0.10766492,-0.11835505,0.20480636,-0.25948828,-0.6967062,-8.85,-26.118752,-27.750002
1763129267855,0.27098715,6.0364933,7.5613194,-0.1565341,-0.10766492,-0.11835505,0.20480636,-0.25948828,-0.6967062,-8.85,-26.118752,-27.750002
1763129267860,0.27098715,6.0364933,7.5613194,-0.1565341,-0.10766492,-0.11835505,0.20480636,-0.25948828,-0.6967062,-6.5437503,-22.85625,-29.1375
1763129267861,0.27098715,6.0364933,7.5613194,-0.1565341,-0.10766492,-0.11835505,0.20433004,-0.25844625,-0.6961765,-6.5437503,-22.85625,-29.1375
1763129267874,0.27098715,6.0364933,7.5613194,-0.1838703,-0.07925971,-0.083230324,0.20433004,-0.25844625,-0.6961765,-6.5437503,-22.85625,-29.1375
1763129267875,0.25244278,5.938986,7.536195,-0.1838703,-0.07925971,-0.083230324,0.20433004,-0.25844625,-0.6961765,-6.5437503,-22.85625,-29.1375
1763129267878,0.25244278,5.938986,7.536195,-0.1838703,-0.07925971,-0.083230324,0.20332435,-0.25712252,-0.6966962,-6.5437503,-22.85625,-29.1375
1763129267879,0.25244278,5.938986,7.536195,-0.1838703,-0.07925971,-0.083230324,0.20332435,-0.25712252,-0.6966962,-6.6000004,-24.150002,-28.518751
1763129267897,0.25244278,5.938986,7.536195,-0.22861615,-0.064140804,-0.053603385,0.20332435,-0.25712252,-0.6966962,-6.6000004,-24.150002,-28.518751
1763129267898,0.34636107,6.0107703,7.580462,-0.22861615,-0.064140804,-0.053603385,0.20332435,-0.25712252,-0.6966962,-6.6000004,-24.150002,-28.518751
1763129267900,0.34636107,6.0107703,7.580462,-0.22861615,-0.064140804,-0.053603385,0.20198293,-0.25544554,-0.69726074,-6.6000004,-24.150002,-28.518751
1763129267902,0.34636107,6.0107703,7.580462,-0.22861615,-0.064140804,-0.053603385,0.20198293,-0.25544554,-0.69726074,-7.2187505,-24.300001,-28.35
1763129267917,0.34636107,6.0107703,7.580462,-0.21441354,-0.06750056,-0.048716467,0.20198293,-0.25544554,-0.69726074,-7.2187505,-24.300001,-28.35
1763129267918,0.34636107,6.0107703,7.580462,-0.21441354,-0.06750056,-0.048716467,0.20086282,-0.2539295,-0.697183,-7.2187505,-24.300001,-28.35
1763129267919,0.34636107,6.0107703,7.580462,-0.21441354,-0.06750056,-0.048716467,0.20086282,-0.2539295,-0.697183,-7.74375,-25.050001,-28.143751
1763129267920,0.4223332,6.0137615,7.631908,-0.21441354,-0.06750056,-0.048716467,0.20086282,-0.2539295,-0.697183,-7.74375,-25.050001,-28.143751
1763129267939,0.4223332,6.0137615,7.631908,-0.21441354,-0.06750056,-0.048716467,0.19987671,-0.2527762,-0.6971624,-7.74375,-25.050001,-28.143751
1763129267940,0.4223332,6.0137615,7.631908,-0.17867795,-0.07391464,-0.067653276,0.19987671,-0.2527762,-0.6971624,-7.74375,-25.050001,-28.143751
1763129267942,0.4223332,6.0137615,7.631908,-0.17867795,-0.07391464,-0.067653276,0.19987671,-0.2527762,-0.6971624,-9.39375,-25.10625,-27.4125
1763129267943,0.33320054,5.9342003,7.7126656,-0.17867795,-0.07391464,-0.067653276,0.19987671,-0.2527762,-0.6971624,-9.39375,-25.10625,-27.4125
1763129267958,0.31585258,5.849255,7.7144604,-0.17867795,-0.07391464,-0.067653276,0.19987671,-0.2527762,-0.6971624,-9.39375,-25.10625,-27.4125
1763129267959,0.31585258,5.849255,7.7144604,-0.17867795,-0.07391464,-0.067653276,0.19886306,-0.25163698,-0.69760954,-9.39375,-25.10625,-27.4125
1763129267960,0.31585258,5.849255,7.7144604,-0.1632536,-0.053450666,-0.04734202,0.19886306,-0.25163698,-0.69760954,-9.39375,-25.10625,-27.4125
1763129267961,0.31585258,5.849255,7.7144604,-0.1632536,-0.053450666,-0.04734202,0.19886306,-0.25163698,-0.69760954,-8.493751,-24.281252,-28.743752
1763129267979,0.31585258,5.849255,7.7144604,-0.1632536,-0.053450666,-0.04734202,0.19886306,-0.25163698,-0.69760954,-8.26875,-24.206251,-27.618752
1763129267980,0.31585258,5.849255,7.7144604,-0.1632536,-0.053450666,-0.04734202,0.19764537,-0.25091243,-0.69818157,-8.26875,-24.206251,-27.618752
1763129267982,0.31585258,5.849255,7.7144604,-0.13744457,-0.07238748,-0.016035201,0.19764537,-0.25091243,-0.69818157,-8.26875,-24.206251,-27.618752
1763129267983,0.4223332,5.9120665,7.713264,-0.13744457,-0.07238748,-0.016035201,0.19764537,-0.25091243,-0.69818157,-8.26875,-24.206251,-27.618752
1763129267997,0.4223332,5.9120665,7.713264,-0.13744457,-0.07238748,-0.016035201,0.19764537,-0.25091243,-0.69818157,-6.3187504,-22.800001,-28.331251
1763129268001,0.4223332,5.9120665,7.713264,-0.13744457,-0.07238748,-0.016035201,0.19686872,-0.25044945,-0.69814116,-6.3187504,-22.800001,-28.331251
1763129268002,0.5024927,5.930611,7.800602,-0.13744457,-0.07238748,-0.016035201,0.19686872,-0.25044945,-0.69814116,-6.3187504,-22.800001,-28.331251
1763129268004,0.5024927,5.930611,7.800602,-0.10155627,-0.069485866,-0.025503604,0.19686872,-0.25044945,-0.69814116,-6.3187504,-22.800001,-28.331251
1763129268019,0.5024927,5.930611,7.800602,-0.10155627,-0.069485866,-0.025503604,0.19686872,-0.25044945,-0.69814116,-8.75625,-24.975,-29.531252
1763129268022,0.5024927,5.930611,7.800602,-0.089797124,-0.044898562,-0.042455103,0.19686872,-0.25044945,-0.69814116,-8.75625,-24.975,-29.531252
1763129268023,0.5024927,5.930611,7.800602,-0.089797124,-0.044898562,-0.042455103,0.19618186,-0.25000358,-0.6983618,-8.75625,-24.975,-29.531252
1763129268025,0.42951167,5.9084773,7.832905,-0.089797124,-0.044898562,-0.042455103,0.19618186,-0.25000358,-0.6983618,-8.75625,-24.975,-29.531252
1763129268038,0.42951167,5.9084773,7.832905,-0.089797124,-0.044898562,-0.042455103,0.19618186,-0.25000358,-0.6983618,-7.3875003,-23.362501,-27.281252
1763129268042,0.42951167,5.9084773,7.832905,-0.089797124,-0.044898562,-0.042455103,0.19561589,-0.24946785,-0.69871545,-7.3875003,-23.362501,-27.281252
1763129268043,0.42951167,5.9084773,7.832905,-0.084452055,-0.03649917,-0.04367683,0.19561589,-0.24946785,-0.69871545,-7.3875003,-23.362501,-27.281252
1763129268045,0.3912265,5.9150577,7.776674,-0.084452055,-0.03649917,-0.04367683,0.19561589,-0.24946785,-0.69871545,-7.3875003,-23.362501,-27.281252
1763129268057,0.3912265,5.9150577,7.776674,-0.084452055,-0.03649917,-0.04367683,0.19561589,-0.24946785,-0.69871545,-8.55,-24.91875,-26.60625
1763129268064,0.3912265,5.9150577,7.776674,-0.084452055,-0.03649917,-0.04367683,0.19543146,-0.24902184,-0.698583,-8.55,-24.91875,-26.60625
1763129268065,0.3912265,5.9150577,7.776674,-0.06185006,-0.043371398,-0.04612029,0.19543146,-0.24902184,-0.698583,-8.55,-24.91875,-26.60625
1763129268066,0.40558344,5.828916,7.8023963,-0.06185006,-0.043371398,-0.04612029,0.19543146,-0.24902184,-0.698583,-8.55,-24.91875,-26.60625
1763129268077,0.40558344,5.828916,7.8023963,-0.06185006,-0.043371398,-0.04612029,0.19543146,-0.24902184,-0.698583,-8.75625,-25.125002,-27.825
1763129268084,0.40558344,5.828916,7.8023963,-0.04016436,-0.03695732,-0.04444041,0.19543146,-0.24902184,-0.698583,-8.75625,-25.125002,-27.825
1763129268085,0.40558344,5.828916,7.8023963,-0.04016436,-0.03695732,-0.04444041,0.19506602,-0.24882525,-0.699069,-8.75625,-25.125002,-27.825
1763129268086,0.4223332,5.8301125,7.926823,-0.04016436,-0.03695732,-0.04444041,0.19506602,-0.24882525,-0.699069,-8.75625,-25.125002,-27.825
1763129268098,0.4223332,5.8301125,7.926823,-0.04016436,-0.03695732,-0.04444041,0.19506602,-0.24882525,-0.699069,-7.0875,-22.0125,-27.862501
1763129268105,0.4223332,5.8301125,7.926823,-0.011759147,-0.031917684,-0.045814857,0.19506602,-0.24882525,-0.699069,-7.0875,-22.0125,-27.862501
1763129268106,0.36191443,5.782256,7.8376904,-0.011759147,-0.031917684,-0.045814857,0.19506602,-0.24882525,-0.699069,-7.0875,-22.0125,-27.862501
1763129268118,0.36191443,5.782256,7.8376904,-0.011759147,-0.031917684,-0.045814857,0.19506602,-0.24882525,-0.699069,-7.0875,-22.0125,-27.862501
1763129268119,0.36191443,5.782256,7.8376904,-0.011759147,-0.031917684,-0.045814857,0.19460325,-0.24891151,-0.7001091,-7.0875,-22.0125,-27.862501
1763129268126,0.36191443,5.782256,7.8376904,-0.020158539,-0.016187917,-0.023365578,0.19460325,-0.24891151,-0.7001091,-7.0875,-22.0125,-27.862501
1763129268128,0.23330021,5.7206407,7.7832537,-0.020158539,-0.016187917,-0.023365578,0.19460325,-0.24891151,-0.7001091,-7.0875,-22.0125,-27.862501
1763129268138,0.23330021,5.7206407,7.7832537,-0.020158539,-0.016187917,-0.023365578,0.1943174,-0.24877577,-0.7007736,-7.0875,-22.0125,-27.862501
1763129268138,0.23330021,5.7206407,7.7832537,-0.020158539,-0.016187917,-0.023365578,0.1943174,-0.24877577,-0.7007736,-7.89375,-24.91875,-27.31875
1763129268147,0.23330021,5.7206407,7.7832537,-0.032375835,-0.013744458,0.010537418,0.1943174,-0.24877577,-0.7007736,-7.89375,-24.91875,-27.31875
1763129268148,0.3290131,5.861219,7.78445,-0.032375835,-0.013744458,0.010537418,0.1943174,-0.24877577,-0.7007736,-7.89375,-24.91875,-27.31875
1763129268157,0.3290131,5.861219,7.78445,-0.032375835,-0.013744458,0.010537418,0.19403958,-0.2484448,-0.7012422,-7.89375,-24.91875,-27.31875
1763129268158,0.3290131,5.861219,7.78445,-0.032375835,-0.013744458,0.010537418,0.19403958,-0.2484448,-0.7012422,-7.5375004,-22.425001,-27.13125
1763129268168,0.3290131,5.861219,7.78445,-0.045051277,0.011148282,-0.012370012,0.19403958,-0.2484448,-0.7012422,-7.5375004,-22.425001,-27.13125
1763129268169,0.57607204,5.928218,7.8496547,-0.045051277,0.011148282,-0.012370012,0.19403958,-0.2484448,-0.7012422,-7.5375004,-22.425001,-27.13125
1763129268180,0.57607204,5.928218,7.8496547,-0.045051277,0.011148282,-0.012370012,0.19428794,-0.24778424,-0.7008348,-7.5375004,-22.425001,-27.13125
1763129268182,0.57607204,5.928218,7.8496547,-0.045051277,0.011148282,-0.012370012,0.19428794,-0.24778424,-0.7008348,-9.5625,-24.187502,-26.19375
1763129268190,0.57607204,5.928218,7.8496547,-0.03940078,0.038789913,-0.041233372,0.19428794,-0.24778424,-0.7008348,-9.5625,-24.187502,-26.19375
1763129268191,0.40079778,5.8193445,7.8753777,-0.03940078,0.038789913,-0.041233372,0.19428794,-0.24778424,-0.7008348,-9.5625,-24.187502,-26.19375
1763129268198,0.40079778,5.8193445,7.8753777,-0.03940078,0.038789913,-0.041233372,0.19428794,-0.24778424,-0.7008348,-9.13125,-24.4125,-27.825
1763129268199,0.40079778,5.8193445,7.8753777,-0.03940078,0.038789913,-0.041233372,0.19454099,-0.2472385,-0.7004945,-9.13125,-24.4125,-27.825
1763129268210,0.40079778,5.8193445,7.8753777,0.0035124724,-0.0058032153,-0.043371398,0.19454099,-0.2472385,-0.7004945,-9.13125,-24.4125,-27.825
1763129268211,0.3188436,5.8749776,7.7156568,0.0035124724,-0.0058032153,-0.043371398,0.19454099,-0.2472385,-0.7004945,-9.13125,-24.4125,-27.825
1763129268218,0.3188436,5.8749776,7.7156568,0.0035124724,-0.0058032153,-0.043371398,0.19457486,-0.24720909,-0.7009849,-9.13125,-24.4125,-27.825
1763129268219,0.3188436,5.8749776,7.7156568,0.0035124724,-0.0058032153,-0.043371398,0.19457486,-0.24720909,-0.7009849,-7.1250005,-23.306252,-28.425001
1763129268232,0.3188436,5.8749776,7.7156568,0.027488915,-0.035124727,-0.04703659,0.19457486,-0.24720909,-0.7009849,-7.1250005,-23.306252,-28.425001
1763129268233,0.4031906,5.8157554,7.652247,0.027488915,-0.035124727,-0.04703659,0.19457486,-0.24720909,-0.7009849,-7.1250005,-23.306252,-28.425001
1763129268239,0.4031906,5.8157554,7.652247,0.027488915,-0.035124727,-0.04703659,0.1952556,-0.24726751,-0.70030135,-7.1250005,-23.306252,-28.425001
1763129268239,0.4031906,5.8157554,7.652247,0.027488915,-0.035124727,-0.04703659,0.1952556,-0.24726751,-0.70030135,-7.8187504,-23.79375,-28.2
1763129268252,0.4031906,5.8157554,7.652247,-0.007941242,-3.054324E-4,-0.032681264,0.1952556,-0.24726751,-0.70030135,-7.8187504,-23.79375,-28.2
1763129268254,0.36251262,5.7391853,7.6630144,-0.007941242,-3.054324E-4,-0.032681264,0.1952556,-0.24726751,-0.70030135,-7.8187504,-23.79375,-28.2
1763129268258,0.36251262,5.7391853,7.6630144,-0.007941242,-3.054324E-4,-0.032681264,0.19571666,-0.24700418,-0.6996929,-7.8187504,-23.79375,-28.2
1763129268259,0.36251262,5.7391853,7.6630144,-0.007941242,-3.054324E-4,-0.032681264,0.19571666,-0.24700418,-0.6996929,-7.3500004,-22.725,-28.650002
1763129268273,0.36251262,5.7391853,7.6630144,-0.041844238,0.016035201,-0.008704823,0.19571666,-0.24700418,-0.6996929,-7.3500004,-22.725,-28.650002
1763129268274,0.40677986,5.840282,7.630113,-0.041844238,0.016035201,-0.008704823,0.19571666,-0.24700418,-0.6996929,-7.3500004,-22.725,-28.650002
1763129268278,0.40677986,5.840282,7.630113,-0.041844238,0.016035201,-0.008704823,0.19579412,-0.24646549,-0.6995004,-7.3500004,-22.725,-28.650002
1763129268279,0.40677986,5.840282,7.630113,-0.041844238,0.016035201,-0.008704823,0.19579412,-0.24646549,-0.6995004,-7.7812505,-23.15625,-29.41875
1763129268294,0.40677986,5.840282,7.630113,-0.025503604,-0.027030766,-0.031917684,0.19579412,-0.24646549,-0.6995004,-7.7812505,-23.15625,-29.41875
1763129268295,0.4432704,5.899504,7.7240314,-0.025503604,-0.027030766,-0.031917684,0.19579412,-0.24646549,-0.6995004,-7.7812505,-23.15625,-29.41875
1763129268299,0.4432704,5.899504,7.7240314,-0.025503604,-0.027030766,-0.031917684,0.19579412,-0.24646549,-0.6995004,-7.3500004,-23.38125,-29.250002
1763129268300,0.4432704,5.899504,7.7240314,-0.025503604,-0.027030766,-0.031917684,0.196103,-0.2462101,-0.69862753,-7.3500004,-23.38125,-29.250002
1763129268315,0.4432704,5.899504,7.7240314,-0.016035201,-0.03604102,-0.052687086,0.196103,-0.2462101,-0.69862753,-7.3500004,-23.38125,-29.250002
1763129268316,0.32063824,5.7984076,7.7796645,-0.016035201,-0.03604102,-0.052687086,0.196103,-0.2462101,-0.69862753,-7.3500004,-23.38125,-29.250002
1763129268317,0.32063824,5.7984076,7.7796645,-0.016035201,-0.03604102,-0.052687086,0.19637159,-0.24609828,-0.69798845,-7.3500004,-23.38125,-29.250002
1763129268319,0.32063824,5.7984076,7.7796645,-0.016035201,-0.03604102,-0.052687086,0.19637159,-0.24609828,-0.69798845,-7.9875,-23.5125,-27.88125
1763129268336,0.32063824,5.7984076,7.7796645,-0.0368046,-0.009926553,-0.035124727,0.19637159,-0.24609828,-0.69798845,-7.9875,-23.5125,-27.88125
1763129268337,0.2644069,5.7427745,7.7754774,-0.0368046,-0.009926553,-0.035124727,0.19637159,-0.24609828,-0.69798845,-7.9875,-23.5125,-27.88125
1763129268339,0.2644069,5.7427745,7.7754774,-0.0368046,-0.009926553,-0.035124727,0.1963533,-0.24568185,-0.6981469,-7.9875,-23.5125,-27.88125
1763129268340,0.2644069,5.7427745,7.7754774,-0.0368046,-0.009926553,-0.035124727,0.1963533,-0.24568185,-0.6981469,-9.0,-23.587502,-28.312502
1763129268358,0.2644069,5.7427745,7.7754774,-0.052381653,-0.013133593,-0.011148282,0.1963533,-0.24568185,-0.6981469,-9.0,-23.587502,-28.312502
1763129268359,0.2644069,5.7427745,7.7754774,-0.052381653,-0.013133593,-0.011148282,0.1960865,-0.24519426,-0.698449,-9.0,-23.587502,-28.312502
1763129268360,0.2644069,5.7427745,7.7754774,-0.052381653,-0.013133593,-0.011148282,0.1960865,-0.24519426,-0.698449,-8.15625,-24.825,-27.581251
1763129268362,0.3702893,5.7984076,7.8352976,-0.052381653,-0.013133593,-0.011148282,0.1960865,-0.24519426,-0.698449,-8.15625,-24.825,-27.581251
1763129268379,0.3702893,5.7984076,7.8352976,-0.052381653,-0.013133593,-0.011148282,0.19580923,-0.24500293,-0.69869024,-8.15625,-24.825,-27.581251
1763129268380,0.3702893,5.7984076,7.8352976,-0.03405571,-0.022296565,-0.020922119,0.19580923,-0.24500293,-0.69869024,-8.15625,-24.825,-27.581251
1763129268381,0.3702893,5.7984076,7.8352976,-0.03405571,-0.022296565,-0.020922119,0.19580923,-0.24500293,-0.69869024,-7.275,-22.3875,-28.425001
1763129268382,0.4432704,5.804988,7.795816,-0.03405571,-0.022296565,-0.020922119,0.19580923,-0.24500293,-0.69869024,-7.275,-22.3875,-28.425001
1763129268397,0.4432704,5.804988,7.795816,-0.03405571,-0.022296565,-0.020922119,0.19580923,-0.24500293,-0.69869024,-9.618751,-25.331251,-27.73125
1763129268399,0.4432704,5.804988,7.795816,-0.03405571,-0.022296565,-0.020922119,0.19559461,-0.2449922,-0.6988076,-9.618751,-25.331251,-27.73125
1763129268401,0.42771706,5.8510494,7.8035927,-0.03405571,-0.022296565,-0.020922119,0.19559461,-0.2449922,-0.6988076,-9.618751,-25.331251,-27.73125
1763129268403,0.42771706,5.8510494,7.8035927,-0.022754714,-0.03451386,-0.04046979,0.19559461,-0.2449922,-0.6988076,-9.618751,-25.331251,-27.73125
1763129268417,0.42771706,5.8510494,7.8035927,-0.022754714,-0.03451386,-0.04046979,0.19559461,-0.2449922,-0.6988076,-7.7625003,-23.306252,-29.081251
1763129268420,0.42771706,5.8510494,7.8035927,-0.03405571,-0.021685699,-0.045051277,0.19559461,-0.2449922,-0.6988076,-7.7625003,-23.306252,-29.081251
1763129268421,0.42771706,5.8510494,7.8035927,-0.03405571,-0.021685699,-0.045051277,0.1955949,-0.2447318,-0.69862586,-7.7625003,-23.306252,-29.081251
1763129268422,0.36191443,5.8061843,7.9022965,-0.03405571,-0.021685699,-0.045051277,0.1955949,-0.2447318,-0.69862586,-7.7625003,-23.306252,-29.081251
1763129268439,0.36191443,5.8061843,7.9022965,-0.03405571,-0.021685699,-0.045051277,0.1955949,-0.2447318,-0.69862586,-7.5937505,-22.78125,-28.706251
1763129268441,0.36191443,5.8061843,7.9022965,-0.03405571,0.0033597562,-0.041691523,0.1955949,-0.2447318,-0.69862586,-7.5937505,-22.78125,-28.706251
1763129268442,0.36011982,5.784649,7.813762,-0.03405571,0.0033597562,-0.041691523,0.1955949,-0.2447318,-0.69862586,-7.5937505,-22.78125,-28.706251
1763129268443,0.36011982,5.784649,7.813762,-0.03405571,0.0033597562,-0.041691523,0.19548316,-0.24434355,-0.6991228,-7.5937505,-22.78125,-28.706251
1763129268459,0.36011982,5.784649,7.813762,-0.03405571,0.0033597562,-0.041691523,0.19548316,-0.24434355,-0.6991228,-7.0125003,-22.63125,-26.306252
1763129268462,0.36011982,5.784649,7.813762,-0.032833982,-0.013744458,-0.033139415,0.19548316,-0.24434355,-0.6991228,-7.0125003,-22.63125,-26.306252
1763129268464,0.36011982,5.784649,7.813762,-0.032833982,-0.013744458,-0.033139415,0.19540353,-0.24404843,-0.69923115,-7.0125003,-22.63125,-26.306252
1763129268465,0.38584265,5.8097734,7.7461653,-0.032833982,-0.013744458,-0.033139415,0.19540353,-0.24404843,-0.69923115,-7.0125003,-22.63125,-26.306252
1763129268479,0.38584265,5.8097734,7.7461653,-0.032833982,-0.013744458,-0.033139415,0.19540353,-0.24404843,-0.69923115,-8.15625,-22.425001,-29.268751
1763129268483,0.3912265,5.757131,7.6779695,-0.032833982,-0.013744458,-0.033139415,0.19540353,-0.24404843,-0.69923115,-8.15625,-22.425001,-29.268751
1763129268484,0.3912265,5.757131,7.6779695,-0.06856957,-0.006261364,-0.033444848,0.19540353,-0.24404843,-0.69923115,-8.15625,-22.425001,-29.268751
1763129268485,0.3912265,5.757131,7.6779695,-0.06856957,-0.006261364,-0.033444848,0.19539858,-0.24338754,-0.6988,-8.15625,-22.425001,-29.268751
1763129268497,0.3912265,5.757131,7.6779695,-0.06856957,-0.006261364,-0.033444848,0.19539858,-0.24338754,-0.6988,-10.293751,-23.400002,-28.593752
1763129268505,0.3912265,5.757131,7.6779695,-0.06856957,-0.006261364,-0.033444848,0.19524328,-0.24267188,-0.6982742,-10.293751,-23.400002,-28.593752
1763129268506,0.3912265,5.757131,7.6779695,-0.08460477,-0.013286309,-0.02535089,0.19524328,-0.24267188,-0.6982742,-10.293751,-23.400002,-28.593752
1763129268507,0.3367898,5.7487564,7.832905,-0.08460477,-0.013286309,-0.02535089,0.19524328,-0.24267188,-0.6982742,-10.293751,-23.400002,-28.593752
1763129268517,0.3367898,5.7487564,7.832905,-0.08460477,-0.013286309,-0.02535089,0.19524328,-0.24267188,-0.6982742,-8.2875,-24.206251,-26.118752
1763129268525,0.3367898,5.7487564,7.832905,-0.04214967,-0.027030766,-0.02367101,0.19524328,-0.24267188,-0.6982742,-8.2875,-24.206251,-26.118752
1763129268526,0.36550367,5.7266226,7.9776707,-0.04214967,-0.027030766,-0.02367101,0.19524328,-0.24267188,-0.6982742,-8.2875,-24.206251,-26.118752
1763129268539,0.36550367,5.7266226,7.9776707,-0.04214967,-0.027030766,-0.02367101,0.1689455,-0.2612088,-0.7611512,-8.2875,-24.206251,-26.118752
1763129268539,0.36550367,5.7266226,7.9776707,-0.04214967,-0.027030766,-0.02367101,0.1689455,-0.2612088,-0.7611512,-8.2875,-23.90625,-29.081251
1763129268546,0.36550367,5.7266226,7.9776707,-0.006261364,-0.0140498895,-0.029474225,0.1689455,-0.2612088,-0.7611512,-8.2875,-23.90625,-29.081251
1763129268547,0.35114673,5.723632,7.899306,-0.006261364,-0.0140498895,-0.029474225,0.1689455,-0.2612088,-0.7611512,-8.2875,-23.90625,-29.081251
1763129268557,0.35114673,5.723632,7.899306,-0.006261364,-0.0140498895,-0.029474225,0.1657636,-0.2630078,-0.76801836,-8.2875,-23.90625,-29.081251
1763129268558,0.35114673,5.723632,7.899306,-0.006261364,-0.0140498895,-0.029474225,0.1657636,-0.2630078,-0.76801836,-9.95625,-24.768751,-27.675001
1763129268566,0.30987054,5.723632,7.763513,-0.006261364,-0.0140498895,-0.029474225,0.1657636,-0.2630078,-0.76801836,-9.95625,-24.768751,-27.675001
1763129268568,0.30987054,5.723632,7.763513,-0.016493348,-0.00763581,-0.027030766,0.1657636,-0.2630078,-0.76801836,-9.95625,-24.768751,-27.675001
1763129268579,0.30987054,5.723632,7.763513,-0.016493348,-0.00763581,-0.027030766,0.1713562,-0.2591326,-0.75593716,-9.95625,-24.768751,-27.675001
1763129268580,0.30987054,5.723632,7.763513,-0.016493348,-0.00763581,-0.027030766,0.1713562,-0.2591326,-0.75593716,-8.306251,-23.90625,-28.781252
1763129268588,0.30987054,5.723632,7.763513,-0.047952887,-0.0074830935,-0.0151189035,0.1713562,-0.2591326,-0.75593716,-8.306251,-23.90625,-28.781252
1763129268589,0.293719,5.701498,7.7940216,-0.047952887,-0.0074830935,-0.0151189035,0.1713562,-0.2591326,-0.75593716,-8.306251,-23.90625,-28.781252
1763129268597,0.293719,5.701498,7.7940216,-0.047952887,-0.0074830935,-0.0151189035,0.17523895,-0.2560487,-0.7470267,-8.306251,-23.90625,-28.781252
1763129268598,0.293719,5.701498,7.7940216,-0.047952887,-0.0074830935,-0.0151189035,0.17523895,-0.2560487,-0.7470267,-9.675,-24.862501,-28.181252
1763129268609,0.293719,5.701498,7.7940216,-0.048411034,-0.0070249448,-0.0035124724,0.17523895,-0.2560487,-0.7470267,-9.675,-24.862501,-28.181252
1763129268610,0.31764722,5.6745787,7.9040914,-0.048411034,-0.0070249448,-0.0035124724,0.17523895,-0.2560487,-0.7470267,-9.675,-24.862501,-28.181252
1763129268619,0.31764722,5.6745787,7.9040914,-0.048411034,-0.0070249448,-0.0035124724,0.17581467,-0.25511572,-0.7454065,-9.675,-24.862501,-28.181252
1763129268620,0.31764722,5.6745787,7.9040914,-0.048411034,-0.0070249448,-0.0035124724,0.17581467,-0.25511572,-0.7454065,-8.325001,-23.90625,-27.2625
1763129268630,0.31764722,5.6745787,7.9040914,-0.013744458,-0.019853106,-0.0010690134,0.17581467,-0.25511572,-0.7454065,-8.325001,-23.90625,-27.2625
1763129268631,0.3924229,5.7391853,7.9746795,-0.013744458,-0.019853106,-0.0010690134,0.17581467,-0.25511572,-0.7454065,-8.325001,-23.90625,-27.2625
1763129268638,0.3924229,5.7391853,7.9746795,-0.013744458,-0.019853106,-0.0010690134,0.17340441,-0.25648883,-0.75057954,-8.325001,-23.90625,-27.2625
1763129268639,0.3924229,5.7391853,7.9746795,-0.013744458,-0.019853106,-0.0010690134,0.17340441,-0.25648883,-0.75057954,-9.150001,-24.4125,-26.625002
1763129268651,0.3924229,5.7391853,7.9746795,0.013286309,0.009926553,-0.01847866,0.17340441,-0.25648883,-0.75057954,-9.150001,-24.4125,-26.625002
1763129268652,0.4671986,5.7559347,7.9346,0.013286309,0.009926553,-0.01847866,0.17340441,-0.25648883,-0.75057954,-9.150001,-24.4125,-26.625002
1763129268658,0.4671986,5.7559347,7.9346,0.013286309,0.009926553,-0.01847866,0.17318417,-0.25669494,-0.751488,-9.150001,-24.4125,-26.625002
1763129268659,0.4671986,5.7559347,7.9346,0.013286309,0.009926553,-0.01847866,0.17318417,-0.25669494,-0.751488,-7.4625,-21.956251,-29.643751
1763129268672,0.4671986,5.7559347,7.9346,0.0140498895,0.03329213,-0.027794348,0.17318417,-0.25669494,-0.751488,-7.4625,-21.956251,-29.643751
1763129268673,0.38285163,5.757131,7.8693953,0.0140498895,0.03329213,-0.027794348,0.17318417,-0.25669494,-0.751488,-7.4625,-21.956251,-29.643751
1763129268678,0.38285163,5.757131,7.8693953,0.0140498895,0.03329213,-0.027794348,0.16919485,-0.2594681,-0.76108104,-7.4625,-21.956251,-29.643751
1763129268679,0.38285163,5.757131,7.8693953,0.0140498895,0.03329213,-0.027794348,0.16919485,-0.2594681,-0.76108104,-7.2937503,-22.3875,-27.825
1763129268693,0.38285163,5.757131,7.8693953,0.0140498895,0.008704823,-0.026267186,0.16919485,-0.2594681,-0.76108104,-7.2937503,-22.3875,-27.825
1763129268694,0.31405798,5.729614,7.8023963,0.0140498895,0.008704823,-0.026267186,0.16919485,-0.2594681,-0.76108104,-7.2937503,-22.3875,-27.825
1763129268699,0.31405798,5.729614,7.8023963,0.0140498895,0.008704823,-0.026267186,0.16919485,-0.2594681,-0.76108104,-9.543751,-24.187502,-27.562502
1763129268700,0.31405798,5.729614,7.8023963,0.0140498895,0.008704823,-0.026267186,0.1708699,-0.25857696,-0.7579772,-9.543751,-24.187502,-27.562502
1763129268714,0.31405798,5.729614,7.8023963,0.007941242,-0.0010690134,-0.008399391,0.1708699,-0.25857696,-0.7579772,-9.543751,-24.187502,-27.562502
1763129268715,0.29072794,5.683552,7.8089767,0.007941242,-0.0010690134,-0.008399391,0.1708699,-0.25857696,-0.7579772,-9.543751,-24.187502,-27.562502
1763129268719,0.29072794,5.683552,7.8089767,0.007941242,-0.0010690134,-0.008399391,0.16830659,-0.26041675,-0.7640035,-9.543751,-24.187502,-27.562502
1763129268720,0.29072794,5.683552,7.8089767,0.007941242,-0.0010690134,-0.008399391,0.16830659,-0.26041675,-0.7640035,-7.8375,-22.987501,-27.056252
1763129268735,0.29072794,5.683552,7.8089767,0.0065667965,0.0018325944,0.0042760535,0.16830659,-0.26041675,-0.7640035,-7.8375,-22.987501,-27.056252
1763129268736,0.3702893,5.7667027,7.804191,0.0065667965,0.0018325944,0.0042760535,0.16830659,-0.26041675,-0.7640035,-7.8375,-22.987501,-27.056252
1763129268740,0.3702893,5.7667027,7.804191,0.0065667965,0.0018325944,0.0042760535,0.16930488,-0.25982702,-0.76209366,-7.8375,-22.987501,-27.056252
1763129268742,0.3702893,5.7667027,7.804191,0.0065667965,0.0018325944,0.0042760535,0.16930488,-0.25982702,-0.76209366,-10.181251,-24.975,-27.993752
1763129268755,0.3702893,5.7667027,7.804191,-0.006872229,0.0074830935,-0.007941242,0.16930488,-0.25982702,-0.76209366,-10.181251,-24.975,-27.993752
1763129268756,0.37986058,5.77747,7.7611203,-0.006872229,0.0074830935,-0.007941242,0.16930488,-0.25982702,-0.76209366,-10.181251,-24.975,-27.993752
1763129268758,0.37986058,5.77747,7.7611203,-0.006872229,0.0074830935,-0.007941242,0.17046587,-0.2591084,-0.7597634,-10.181251,-24.975,-27.993752
1763129268759,0.37986058,5.77747,7.7611203,-0.006872229,0.0074830935,-0.007941242,0.17046587,-0.2591084,-0.7597634,-7.7812505,-23.2875,-26.962502
1763129268779,0.37986058,5.77747,7.7611203,-0.006872229,0.0074830935,-0.007941242,0.17046587,-0.2591084,-0.7597634,-8.493751,-24.431252,-27.337502
1763129268780,0.37986058,5.77747,7.7611203,0.004123337,-0.024281874,-0.014355322,0.17046587,-0.2591084,-0.7597634,-8.493751,-24.431252,-27.337502
1763129268781,0.32662028,5.7080784,7.765906,0.004123337,-0.024281874,-0.014355322,0.17046587,-0.2591084,-0.7597634,-8.493751,-24.431252,-27.337502
1763129268798,0.32662028,5.7080784,7.765906,0.004123337,-0.024281874,-0.014355322,0.16929379,-0.26013193,-0.76227134,-8.493751,-24.431252,-27.337502
1763129268800,0.32662028,5.7080784,7.765906,0.011606431,-0.026572619,-0.003817905,0.16929379,-0.26013193,-0.76227134,-8.493751,-24.431252,-27.337502
1763129268801,0.32662028,5.7080784,7.765906,0.011606431,-0.026572619,-0.003817905,0.17113645,-0.25914225,-0.75815016,-8.493751,-24.431252,-27.337502
1763129268802,0.32662028,5.7080784,7.765906,0.011606431,-0.026572619,-0.003817905,0.17113645,-0.25914225,-0.75815016,-9.8625,-26.19375,-27.112501
1763129268803,0.3044867,5.680561,7.920243,0.011606431,-0.026572619,-0.003817905,0.17113645,-0.25914225,-0.75815016,-9.8625,-26.19375,-27.112501
1763129268817,0.3044867,5.680561,7.920243,0.011606431,-0.026572619,-0.003817905,0.17113645,-0.25914225,-0.75815016,-8.868751,-24.35625,-28.06875
1763129268819,0.3044867,5.680561,7.920243,-0.004734202,0.023060145,0.004734202,0.17113645,-0.25914225,-0.75815016,-8.868751,-24.35625,-28.06875
1763129268820,0.3044867,5.680561,7.920243,-0.004734202,0.023060145,0.004734202,0.17187905,-0.25841296,-0.7568146,-8.868751,-24.35625,-28.06875
1763129268822,0.33200413,5.6931233,7.8693953,-0.004734202,0.023060145,0.004734202,0.17187905,-0.25841296,-0.7568146,-8.868751,-24.35625,-28.06875
1763129268838,0.33200413,5.6931233,7.8693953,-0.004734202,0.023060145,0.004734202,0.17187905,-0.25841296,-0.7568146,-7.8,-23.1375,-28.218752
1763129268840,0.33200413,5.6931233,7.8693953,-0.004734202,0.023060145,0.004734202,0.16965052,-0.25953603,-0.7621929,-7.8,-23.1375,-28.218752
1763129268841,0.33200413,5.6931233,7.8693953,-0.020616686,0.044287696,0.00320704,0.16965052,-0.25953603,-0.7621929,-7.8,-23.1375,-28.218752
1763129268842,0.37208393,5.790631,7.8281193,-0.020616686,0.044287696,0.00320704,0.16965052,-0.25953603,-0.7621929,-7.8,-23.1375,-28.218752
1763129268858,0.37208393,5.790631,7.8281193,-0.020616686,0.044287696,0.00320704,0.16965052,-0.25953603,-0.7621929,-7.8,-23.79375,-28.968752
1763129268862,0.37208393,5.790631,7.8281193,-0.020616686,0.044287696,0.00320704,0.16991007,-0.25935772,-0.7619949,-7.8,-23.79375,-28.968752
1763129268863,0.37208393,5.790631,7.8281193,-0.011759147,0.016493348,-0.01527162,0.16991007,-0.25935772,-0.7619949,-7.8,-23.79375,-28.968752
1763129268865,0.2955136,5.7188463,7.830512,-0.011759147,0.016493348,-0.01527162,0.16991007,-0.25935772,-0.7619949,-7.8,-23.79375,-28.968752
1763129268880,0.2955136,5.7188463,7.830512,-0.011759147,0.016493348,-0.01527162,0.16991007,-0.25935772,-0.7619949,-8.212501,-22.931252,-28.85625
1763129268883,0.2955136,5.7188463,7.830512,-0.011759147,0.016493348,-0.01527162,0.16901997,-0.2601677,-0.7640664,-8.212501,-22.931252,-28.85625
1763129268884,0.2955136,5.7188463,7.830512,0.017562363,-0.01527162,3.054324E-4,0.16901997,-0.2601677,-0.7640664,-8.212501,-22.931252,-28.85625
1763129268885,0.31106696,5.703293,7.9238324,0.017562363,-0.01527162,3.054324E-4,0.16901997,-0.2601677,-0.7640664,-8.212501,-22.931252,-28.85625
1763129268898,0.31106696,5.703293,7.9238324,0.017562363,-0.01527162,3.054324E-4,0.16901997,-0.2601677,-0.7640664,-9.618751,-23.56875,-29.1
1763129268904,0.31106696,5.703293,7.9238324,0.04978548,-0.016035201,-0.0033597562,0.16901997,-0.2601677,-0.7640664,-9.618751,-23.56875,-29.1
1763129268906,0.31106696,5.703293,7.9238324,0.04978548,-0.016035201,-0.0033597562,0.16892251,-0.2606929,-0.76459384,-9.618751,-23.56875,-29.1
1763129268907,0.40677986,5.7397833,7.926225,0.04978548,-0.016035201,-0.0033597562,0.16892251,-0.2606929,-0.76459384,-9.618751,-23.56875,-29.1
1763129268917,0.40677986,5.7397833,7.926225,0.04978548,-0.016035201,-0.0033597562,0.16892251,-0.2606929,-0.76459384,-9.1125,-24.4125,-28.125002
1763129268923,0.40677986,5.7397833,7.926225,0.04978548,-0.016035201,-0.0033597562,0.1683639,-0.26161262,-0.76644725,-9.1125,-24.4125,-28.125002
1763129268924,0.40677986,5.7397833,7.926225,0.05589413,0.013286309,-0.012370012,0.1683639,-0.26161262,-0.76644725,-9.1125,-24.4125,-28.125002
1763129268925,0.4127619,5.7876396,7.844869,0.05589413,0.013286309,-0.012370012,0.1683639,-0.26161262,-0.76644725,-9.1125,-24.4125,-28.125002
1763129268939,0.4127619,5.7876396,7.844869,0.05589413,0.013286309,-0.012370012,0.1683639,-0.26161262,-0.76644725,-8.418751,-23.2875,-27.31875
1763129268946,0.4127619,5.7876396,7.844869,0.05589413,0.013286309,-0.012370012,0.16792713,-0.26218963,-0.7681908,-8.418751,-23.2875,-27.31875
1763129268947,0.4127619,5.7876396,7.844869,0.021227552,0.033597562,-0.021227552,0.16792713,-0.26218963,-0.7681908,-8.418751,-23.2875,-27.31875
1763129268948,0.32362926,5.7984076,7.765308,0.021227552,0.033597562,-0.021227552,0.16792713,-0.26218963,-0.7681908,-8.418751,-23.2875,-27.31875
1763129268958,0.32362926,5.7984076,7.765308,0.021227552,0.033597562,-0.021227552,0.16792713,-0.26218963,-0.7681908,-8.94375,-24.0375,-27.112501
1763129268965,0.32362926,5.7984076,7.765308,0.0108428495,0.025503604,-0.010231985,0.16792713,-0.26218963,-0.7681908,-8.94375,-24.0375,-27.112501
1763129268966,0.23748764,5.745765,7.743174,0.0108428495,0.025503604,-0.010231985,0.16792713,-0.26218963,-0.7681908,-8.94375,-24.0375,-27.112501
1763129268979,0.23748764,5.745765,7.743174,0.0108428495,0.025503604,-0.010231985,0.16867761,-0.26198184,-0.76738834,-8.94375,-24.0375,-27.112501
1763129268980,0.23748764,5.745765,7.743174,0.0108428495,0.025503604,-0.010231985,0.16867761,-0.26198184,-0.76738834,-9.806251,-24.243752,-26.550001
1763129268988,0.23748764,5.745765,7.743174,0.021838415,6.108648E-4,0.0035124724,0.16867761,-0.26198184,-0.76738834,-9.806251,-24.243752,-26.550001
1763129268990,0.23748764,5.6853466,7.768897,0.021838415,6.108648E-4,0.0035124724,0.16867761,-0.26198184,-0.76738834,-9.806251,-24.243752,-26.550001
1763129268997,0.23748764,5.6853466,7.768897,0.021838415,6.108648E-4,0.0035124724,0.16934536,-0.26189482,-0.76653135,-9.806251,-24.243752,-26.550001
1763129268998,0.23748764,5.6853466,7.768897,0.021838415,6.108648E-4,0.0035124724,0.16934536,-0.26189482,-0.76653135,-9.13125,-24.4125,-27.375002
1763129269008,0.23748764,5.6853466,7.768897,0.0065667965,0.010384701,0.024740024,0.16934536,-0.26189482,-0.76653135,-9.13125,-24.4125,-27.375002
1763129269009,0.28594232,5.6985073,7.6893353,0.0065667965,0.010384701,0.024740024,0.16934536,-0.26189482,-0.76653135,-9.13125,-24.4125,-27.375002
1763129269017,0.28594232,5.6985073,7.6893353,0.0065667965,0.010384701,0.024740024,0.16911235,-0.2620714,-0.76723695,-9.13125,-24.4125,-27.375002
1763129269019,0.28594232,5.6985073,7.6893353,0.0065667965,0.010384701,0.024740024,0.16911235,-0.2620714,-0.76723695,-9.3,-24.13125,-27.50625
1763129269030,0.28594232,5.6985073,7.6893353,-0.03008509,0.02535089,0.021532983,0.16911235,-0.2620714,-0.76723695,-9.3,-24.13125,-27.50625
1763129269031,0.45583272,5.8480587,7.765906,-0.03008509,0.02535089,0.021532983,0.16911235,-0.2620714,-0.76723695,-9.3,-24.13125,-27.50625
1763129269038,0.45583272,5.8480587,7.765906,-0.03008509,0.02535089,0.021532983,0.16901049,-0.26184902,-0.7674975,-9.3,-24.13125,-27.50625
1763129269039,0.45583272,5.8480587,7.765906,-0.03008509,0.02535089,0.021532983,0.16901049,-0.26184902,-0.7674975,-8.2875,-24.056252,-27.825
1763129269049,0.45583272,5.8480587,7.765906,-0.028863361,0.059559315,-0.018173227,0.16901049,-0.26184902,-0.7674975,-8.2875,-24.056252,-27.825
1763129269050,0.5712864,5.901897,7.530811,-0.028863361,0.059559315,-0.018173227,0.16901049,-0.26184902,-0.7674975,-8.2875,-24.056252,-27.825
1763129269059,0.5712864,5.901897,7.530811,-0.028863361,0.059559315,-0.018173227,0.16901313,-0.26172087,-0.7681089,-8.2875,-24.056252,-27.825
1763129269060,0.5712864,5.901897,7.530811,-0.028863361,0.059559315,-0.018173227,0.16901313,-0.26172087,-0.7681089,-9.4875,-23.7,-28.125002
1763129269073,0.5712864,5.901897,7.530811,-0.038026333,-0.053450666,-0.09346231,0.16901313,-0.26172087,-0.7681089,-9.4875,-23.7,-28.125002
1763129269073,-0.07836494,5.7056856,6.5048885,-0.038026333,-0.053450666,-0.09346231,0.16901313,-0.26172087,-0.7681089,-9.4875,-23.7,-28.125002
1763129269079,-0.07836494,5.7056856,6.5048885,-0.038026333,-0.053450666,-0.09346231,0.16901313,-0.26172087,-0.7681089,-8.793751,-23.23125,-29.400002
1763129269092,-0.07836494,5.7056856,6.5048885,-0.18112141,-0.20127994,0.014966187,0.16901313,-0.26172087,-0.7681089,-8.793751,-23.23125,-29.400002
1763129269093,0.101694964,5.528617,7.2646093,-0.18112141,-0.20127994,0.014966187,0.16901313,-0.26172087,-0.7681089,-8.793751,-23.23125,-29.400002
1763129269098,0.101694964,5.528617,7.2646093,-0.18112141,-0.20127994,0.014966187,0.16861294,-0.26218957,-0.7685487,-8.793751,-23.23125,-29.400002
1763129269099,0.101694964,5.528617,7.2646093,-0.18112141,-0.20127994,0.014966187,0.16846696,-0.2617626,-0.7663292,-8.793751,-23.23125,-29.400002
1763129269100,0.101694964,5.528617,7.2646093,-0.18112141,-0.20127994,0.014966187,0.16846696,-0.2617626,-0.7663292,-10.106251,-23.98125,-26.56875
1763129269113,0.101694964,5.528617,7.2646093,-0.31093016,-0.20952661,0.03848448,0.16846696,-0.2617626,-0.7663292,-10.106251,-23.98125,-26.56875
1763129269114,0.5629115,5.666204,7.885547,-0.31093016,-0.20952661,0.03848448,0.16846696,-0.2617626,-0.7663292,-10.106251,-23.98125,-26.56875
1763129269118,0.5629115,5.666204,7.885547,-0.31093016,-0.20952661,0.03848448,0.16482498,-0.26098347,-0.76857406,-10.106251,-23.98125,-26.56875
1763129269119,0.5629115,5.666204,7.885547,-0.31093016,-0.20952661,0.03848448,0.16482498,-0.26098347,-0.76857406,-8.85,-23.0625,-26.737501
1763129269134,0.5629115,5.666204,7.885547,-0.32757625,-0.06734784,-0.0018325944,0.16482498,-0.26098347,-0.76857406,-8.85,-23.0625,-26.737501
1763129269135,0.47198427,5.5908303,8.805588,-0.32757625,-0.06734784,-0.0018325944,0.16482498,-0.26098347,-0.76857406,-8.85,-23.0625,-26.737501
1763129269141,0.47198427,5.5908303,8.805588,-0.32757625,-0.06734784,-0.0018325944,0.16186903,-0.25912187,-0.770156,-8.85,-23.0625,-26.737501
1763129269142,0.47198427,5.5908303,8.805588,-0.32757625,-0.06734784,-0.0018325944,0.16186903,-0.25912187,-0.770156,-10.087501,-24.0,-27.31875
1763129269155,0.31106696,5.3569317,8.807382,-0.32757625,-0.06734784,-0.0018325944,0.16186903,-0.25912187,-0.770156,-10.087501,-24.0,-27.31875
1763129269156,0.31106696,5.3569317,8.807382,-0.22678354,0.07910699,0.011606431,0.16186903,-0.25912187,-0.770156,-10.087501,-24.0,-27.31875
1763129269157,0.31106696,5.3569317,8.807382,-0.22678354,0.07910699,0.011606431,0.15959796,-0.25682148,-0.77289283,-10.087501,-24.0,-27.31875
1763129269159,0.31106696,5.3569317,8.807382,-0.22678354,0.07910699,0.011606431,0.15959796,-0.25682148,-0.77289283,-9.20625,-22.35,-27.7875
1763129269180,0.14177474,5.6482577,8.05783,-0.22678354,0.07910699,0.011606431,0.15959796,-0.25682148,-0.77289283,-9.20625,-22.35,-27.7875
1763129269181,0.14177474,5.6482577,8.05783,0.009926553,0.005497783,-0.0035124724,0.15959796,-0.25682148,-0.77289283,-9.20625,-22.35,-27.7875
1763129269182,0.14177474,5.6482577,8.05783,0.009926553,0.005497783,-0.0035124724,0.1579063,-0.25664383,-0.7759769,-9.20625,-22.35,-27.7875
1763129269182,0.14177474,5.6482577,8.05783,0.009926553,0.005497783,-0.0035124724,0.1579063,-0.25664383,-0.7759769,-10.40625,-24.525002,-26.04375
