timestamp,accX,accY,accZ,gyroX,gyroY,gyroZ,rotX,rotY,rotZ,magX,magY,magZ
1763129396638,-1.4195421,7.009176,5.768497,-0.00641408,-0.7965677,-0.18875721,0.3847981,0.004143468,-0.13808218,-2.5500002,-4.125,-34.068752
1763129396639,-1.4195421,7.009176,5.768497,-0.00641408,-0.7965677,-0.18875721,0.3847981,0.004143468,-0.13808218,-5.7375,-4.36875,-31.931252
1763129396639,-1.4195421,7.009176,5.768497,-0.10293072,-0.616668,-0.22663084,0.3847981,0.004143468,-0.13808218,-5.7375,-4.36875,-31.931252
1763129396639,-0.9774681,6.373283,6.4271216,-0.10293072,-0.616668,-0.22663084,0.3847981,0.004143468,-0.13808218,-5.7375,-4.36875,-31.931252
1763129396657,-0.9774681,6.373283,6.4271216,-0.10293072,-0.616668,-0.22663084,0.3847981,0.004143468,-0.13808218,-3.3000002,-3.35625,-35.41875
1763129396659,-0.9774681,6.373283,6.4271216,-0.3715585,-0.33032513,-0.15103632,0.3847981,0.004143468,-0.13808218,-3.3000002,-3.35625,-35.41875
1763129396659,-0.9774681,6.373283,6.4271216,-0.3715585,-0.33032513,-0.15103632,0.38076133,0.0021263899,-0.14082937,-3.3000002,-3.35625,-35.41875
1763129396660,-1.2095718,6.6167526,6.7034926,-0.3715585,-0.33032513,-0.15103632,0.38076133,0.0021263899,-0.14082937,-3.3000002,-3.35625,-35.41875
1763129396677,-1.2095718,6.6167526,6.7034926,-0.3715585,-0.33032513,-0.15103632,0.38076133,0.0021263899,-0.14082937,-4.3875003,-2.30625,-33.28125
1763129396679,-1.2095718,6.6167526,6.7034926,-0.41645706,-0.23991714,-0.06780599,0.38076133,0.0021263899,-0.14082937,-4.3875003,-2.30625,-33.28125
1763129396680,-1.2095718,6.6167526,6.7034926,-0.41645706,-0.23991714,-0.06780599,0.37643912,7.3496177E-4,-0.14248112,-4.3875003,-2.30625,-33.28125
1763129396681,-1.3639089,6.631708,7.4476604,-0.41645706,-0.23991714,-0.06780599,0.37643912,7.3496177E-4,-0.14248112,-4.3875003,-2.30625,-33.28125
1763129396699,-1.3639089,6.631708,7.4476604,-0.41645706,-0.23991714,-0.06780599,0.37643912,7.3496177E-4,-0.14248112,-2.4375,-3.0,-37.21875
1763129396702,-1.3639089,6.631708,7.4476604,-0.1725693,-0.1621846,-0.03161225,0.37643912,7.3496177E-4,-0.14248112,-2.4375,-3.0,-37.21875
1763129396703,-1.3639089,6.631708,7.4476604,-0.1725693,-0.1621846,-0.03161225,0.3744638,-4.0629666E-4,-0.14356491,-2.4375,-3.0,-37.21875
1763129396704,-1.4051851,6.3278193,7.4512496,-0.1725693,-0.1621846,-0.03161225,0.3744638,-4.0629666E-4,-0.14356491,-2.4375,-3.0,-37.21875
1763129396718,-1.4051851,6.3278193,7.4512496,-0.1725693,-0.1621846,-0.03161225,0.3744638,-4.0629666E-4,-0.14356491,-1.8375001,-2.8500001,-36.018753
1763129396722,-1.4051851,6.3278193,7.4512496,0.045509428,-0.19807291,0.018936807,0.3744638,-4.0629666E-4,-0.14356491,-1.8375001,-2.8500001,-36.018753
1763129396722,-1.4051851,6.3278193,7.4512496,0.045509428,-0.19807291,0.018936807,0.37447864,-0.00240964,-0.14435887,-1.8375001,-2.8500001,-36.018753
1763129396724,-1.282553,6.4797635,6.8853474,0.045509428,-0.19807291,0.018936807,0.37447864,-0.00240964,-0.14435887,-1.8375001,-2.8500001,-36.018753
1763129396737,-1.282553,6.4797635,6.8853474,0.045509428,-0.19807291,0.018936807,0.37447864,-0.00240964,-0.14435887,-3.24375,-3.6562502,-35.925003
1763129396743,-1.282553,6.4797635,6.8853474,0.011148282,-0.194255,0.046883874,0.37447864,-0.00240964,-0.14435887,-3.24375,-3.6562502,-35.925003
1763129396744,-1.282553,6.4797635,6.8853474,0.011148282,-0.194255,0.046883874,0.3742822,-0.004437537,-0.14479862,-3.24375,-3.6562502,-35.925003
1763129396745,-0.9026923,6.8081784,6.576673,0.011148282,-0.194255,0.046883874,0.3742822,-0.004437537,-0.14479862,-3.24375,-3.6562502,-35.925003
1763129396757,-0.9026923,6.8081784,6.576673,0.011148282,-0.194255,0.046883874,0.3742822,-0.004437537,-0.14479862,-3.5812502,-3.0937502,-36.318752
1763129396764,-0.9026923,6.8081784,6.576673,-0.1244637,-0.19562945,0.043982264,0.3742822,-0.004437537,-0.14479862,-3.5812502,-3.0937502,-36.318752
1763129396764,-0.9026923,6.8081784,6.576673,-0.1244637,-0.19562945,0.043982264,0.37288144,-0.0063027055,-0.14510325,-3.5812502,-3.0937502,-36.318752
1763129396765,-0.59342,6.99781,6.843473,-0.1244637,-0.19562945,0.043982264,0.37288144,-0.0063027055,-0.14510325,-3.5812502,-3.0937502,-36.318752
1763129396779,-0.59342,6.99781,6.843473,-0.1244637,-0.19562945,0.043982264,0.37288144,-0.0063027055,-0.14510325,-4.3500004,-2.4562502,-34.893753
1763129396785,-0.59342,6.99781,6.843473,-0.16264275,-0.1291979,-0.0035124724,0.37288144,-0.0063027055,-0.14510325,-4.3500004,-2.4562502,-34.893753
1763129396785,-0.59342,6.99781,6.843473,-0.16264275,-0.1291979,-0.0035124724,0.3712054,-0.007312439,-0.14545849,-4.3500004,-2.4562502,-34.893753
1763129396786,-0.58683974,6.99781,7.185048,-0.16264275,-0.1291979,-0.0035124724,0.3712054,-0.007312439,-0.14545849,-4.3500004,-2.4562502,-34.893753
1763129396798,-0.58683974,6.99781,7.185048,-0.16264275,-0.1291979,-0.0035124724,0.3712054,-0.007312439,-0.14545849,-11.231251,-6.0937505,-29.906252
1763129396805,-0.58683974,6.99781,7.185048,-0.11377356,-0.09086613,-0.04459313,0.3712054,-0.007312439,-0.14545849,-11.231251,-6.0937505,-29.906252
1763129396806,-0.7399804,6.920043,7.308877,-0.11377356,-0.09086613,-0.04459313,0.3712054,-0.007312439,-0.14545849,-11.231251,-6.0937505,-29.906252
1763129396817,-0.7399804,6.920043,7.308877,-0.11377356,-0.09086613,-0.04459313,0.37000966,-0.007895767,-0.14612901,-11.231251,-6.0937505,-29.906252
1763129396818,-0.7399804,6.920043,7.308877,-0.11377356,-0.09086613,-0.04459313,0.37000966,-0.007895767,-0.14612901,-12.468751,-4.93125,-28.0125
1763129396827,-0.7399804,6.920043,7.308877,-0.05146536,-0.07666353,-0.03604102,0.37000966,-0.007895767,-0.14612901,-12.468751,-4.93125,-28.0125
1763129396828,-0.64606214,6.920043,7.2616186,-0.05146536,-0.07666353,-0.03604102,0.37000966,-0.007895767,-0.14612901,-12.468751,-4.93125,-28.0125
1763129396837,-0.64606214,6.920043,7.2616186,-0.05146536,-0.07666353,-0.03604102,0.3694081,-0.0084406175,-0.14669873,-12.468751,-4.93125,-28.0125
1763129396838,-0.64606214,6.920043,7.2616186,-0.05146536,-0.07666353,-0.03604102,0.3694081,-0.0084406175,-0.14669873,-4.3125,-4.36875,-33.61875
1763129396849,-0.64606214,6.920043,7.2616186,-0.023365578,-0.06307179,-0.040317077,0.3694081,-0.0084406175,-0.14669873,-4.3125,-4.36875,-33.61875
1763129396849,-0.6430711,7.0145597,7.237092,-0.023365578,-0.06307179,-0.040317077,0.3694081,-0.0084406175,-0.14669873,-4.3125,-4.36875,-33.61875
1763129396858,-0.6430711,7.0145597,7.237092,-0.023365578,-0.06307179,-0.040317077,0.36910516,-0.008890532,-0.14722021,-4.3125,-4.36875,-33.61875
1763129396858,-0.6430711,7.0145597,7.237092,-0.023365578,-0.06307179,-0.040317077,0.36910516,-0.008890532,-0.14722021,-3.1875002,-3.9750001,-35.8125
1763129396869,-0.6430711,7.0145597,7.237092,-0.008857539,-0.055435978,-0.05864302,0.36910516,-0.008890532,-0.14722021,-3.1875002,-3.9750001,-35.8125
1763129396870,-0.91405827,6.862615,7.2646093,-0.008857539,-0.055435978,-0.05864302,0.36910516,-0.008890532,-0.14722021,-3.1875002,-3.9750001,-35.8125
1763129396878,-0.91405827,6.862615,7.2646093,-0.008857539,-0.055435978,-0.05864302,0.36897516,-0.009219266,-0.14787622,-3.1875002,-3.9750001,-35.8125
1763129396878,-0.91405827,6.862615,7.2646093,-0.008857539,-0.055435978,-0.05864302,0.36897516,-0.009219266,-0.14787622,-4.59375,-3.3187501,-34.443752
1763129396889,-0.91405827,6.862615,7.2646093,0.020158539,-0.031917684,-0.052076224,0.36897516,-0.009219266,-0.14787622,-4.59375,-3.3187501,-34.443752
1763129396890,-0.95054877,6.8446693,7.2083783,0.020158539,-0.031917684,-0.052076224,0.36897516,-0.009219266,-0.14787622,-4.59375,-3.3187501,-34.443752
1763129396900,-0.95054877,6.8446693,7.2083783,0.020158539,-0.031917684,-0.052076224,0.36897516,-0.009219266,-0.14787622,-5.775,-5.3625,-35.756252
1763129396901,-0.95054877,6.8446693,7.2083783,0.020158539,-0.031917684,-0.052076224,0.36913648,-0.009358467,-0.1484894,-5.775,-5.3625,-35.756252
1763129396911,-0.95054877,6.8446693,7.2083783,0.041691523,-0.034208428,-0.057726722,0.36913648,-0.009358467,-0.1484894,-5.775,-5.3625,-35.756252
1763129396912,-0.9320044,6.806982,7.1659055,0.041691523,-0.034208428,-0.057726722,0.36913648,-0.009358467,-0.1484894,-5.775,-5.3625,-35.756252
1763129396917,-0.9320044,6.806982,7.1659055,0.041691523,-0.034208428,-0.057726722,0.3695069,-0.009525706,-0.14917508,-5.775,-5.3625,-35.756252
1763129396918,-0.9320044,6.806982,7.1659055,0.041691523,-0.034208428,-0.057726722,0.3695069,-0.009525706,-0.14917508,-2.98125,-3.6000001,-36.61875
1763129396932,-0.9320044,6.806982,7.1659055,0.028405212,-0.022907428,-0.07803798,0.3695069,-0.009525706,-0.14917508,-2.98125,-3.6000001,-36.61875
1763129396933,-1.0289137,6.6795645,7.007381,0.028405212,-0.022907428,-0.07803798,0.3695069,-0.009525706,-0.14917508,-2.98125,-3.6000001,-36.61875
1763129396937,-1.0289137,6.6795645,7.007381,0.028405212,-0.022907428,-0.07803798,0.36976835,-0.009487963,-0.15000638,-2.98125,-3.6000001,-36.61875
1763129396939,-1.0289137,6.6795645,7.007381,0.028405212,-0.022907428,-0.07803798,0.36976835,-0.009487963,-0.15000638,-5.90625,-4.74375,-33.693752
1763129396953,-1.0289137,6.6795645,7.007381,-1.527162E-4,-0.011759147,-0.068722285,0.36976835,-0.009487963,-0.15000638,-5.90625,-4.74375,-33.693752
1763129396954,-1.1569297,6.5629144,6.991828,-1.527162E-4,-0.011759147,-0.068722285,0.36976835,-0.009487963,-0.15000638,-5.90625,-4.74375,-33.693752
1763129396958,-1.1569297,6.5629144,6.991828,-1.527162E-4,-0.011759147,-0.068722285,0.369778,-0.009319546,-0.15074466,-5.90625,-4.74375,-33.693752
1763129396959,-1.1569297,6.5629144,6.991828,-1.527162E-4,-0.011759147,-0.068722285,0.369778,-0.009319546,-0.15074466,-3.2812502,-1.8937501,-35.79375
1763129396975,-1.1569297,6.5629144,6.991828,-0.0067195124,-0.011911863,-0.039095346,0.369778,-0.009319546,-0.15074466,-3.2812502,-1.8937501,-35.79375
1763129396976,-1.1599208,6.518049,7.0169525,-0.0067195124,-0.011911863,-0.039095346,0.369778,-0.009319546,-0.15074466,-3.2812502,-1.8937501,-35.79375
1763129396980,-1.1599208,6.518049,7.0169525,-0.0067195124,-0.011911863,-0.039095346,0.36970708,-0.009241446,-0.15125564,-3.2812502,-1.8937501,-35.79375
1763129396981,-1.1599208,6.518049,7.0169525,-0.0067195124,-0.011911863,-0.039095346,0.36970708,-0.009241446,-0.15125564,-2.90625,-2.60625,-35.193752
1763129396995,-1.1599208,6.518049,7.0169525,0.023365578,-0.02046397,-0.023060145,0.36970708,-0.009241446,-0.15125564,-2.90625,-2.60625,-35.193752
1763129396996,-1.0911272,6.5868425,7.012765,0.023365578,-0.02046397,-0.023060145,0.36970708,-0.009241446,-0.15125564,-2.90625,-2.60625,-35.193752
1763129396997,-1.0911272,6.5868425,7.012765,0.023365578,-0.02046397,-0.023060145,0.36989743,-0.009355774,-0.15164831,-2.90625,-2.60625,-35.193752
1763129396999,-1.0911272,6.5868425,7.012765,0.023365578,-0.02046397,-0.023060145,0.36989743,-0.009355774,-0.15164831,-1.44375,-1.4625001,-34.3125
1763129397016,-1.0911272,6.5868425,7.012765,0.057268575,-0.027336199,-0.021838415,0.36989743,-0.009355774,-0.15164831,-1.44375,-1.4625001,-34.3125
1763129397017,-1.1820544,6.553343,6.9355965,0.057268575,-0.027336199,-0.021838415,0.36989743,-0.009355774,-0.15164831,-1.44375,-1.4625001,-34.3125
1763129397019,-1.1820544,6.553343,6.9355965,0.057268575,-0.027336199,-0.021838415,0.37041137,-0.009603792,-0.15202147,-1.44375,-1.4625001,-34.3125
1763129397021,-1.1820544,6.553343,6.9355965,0.057268575,-0.027336199,-0.021838415,0.37041137,-0.009603792,-0.15202147,-1.3875,-1.7812501,-34.96875
1763129397038,-1.1820544,6.553343,6.9355965,0.057268575,-0.027336199,-0.021838415,0.37096804,-0.009710727,-0.15211909,-1.3875,-1.7812501,-34.96875
1763129397039,-1.1820544,6.553343,6.9355965,0.057574004,-0.004581486,0.0012217296,0.37096804,-0.009710727,-0.15211909,-1.3875,-1.7812501,-34.96875
1763129397043,-1.1820544,6.553343,6.9355965,0.057574004,-0.004581486,0.0012217296,0.37096804,-0.009710727,-0.15211909,-1.85625,-2.8500001,-35.268753
1763129397045,-1.1533405,6.5431733,6.8614187,0.057574004,-0.004581486,0.0012217296,0.37096804,-0.009710727,-0.15211909,-1.85625,-2.8500001,-35.268753
1763129397058,-1.0977074,6.6155562,6.775277,0.057574004,-0.004581486,0.0012217296,0.37096804,-0.009710727,-0.15211909,-1.85625,-2.8500001,-35.268753
1763129397059,-1.0977074,6.6155562,6.775277,0.020158539,-0.010995566,0.027336199,0.37096804,-0.009710727,-0.15211909,-1.85625,-2.8500001,-35.268753
1763129397060,-1.0977074,6.6155562,6.775277,0.020158539,-0.010995566,0.027336199,0.371161,-0.009923145,-0.15198296,-1.85625,-2.8500001,-35.268753
1763129397062,-1.0977074,6.6155562,6.775277,0.020158539,-0.010995566,0.027336199,0.371161,-0.009923145,-0.15198296,-2.1750002,-3.9,-35.7
1763129397077,-1.0977074,6.6155562,6.775277,0.020158539,-0.010995566,0.027336199,0.371161,-0.009923145,-0.15198296,-3.4125001,-4.8375,-37.78125
1763129397078,-1.0977074,6.6155562,6.775277,-0.008704823,-0.035124727,0.0368046,0.371161,-0.009923145,-0.15198296,-3.4125001,-4.8375,-37.78125
1763129397080,-1.0977074,6.6155562,6.775277,-0.008704823,-0.035124727,0.0368046,0.37106258,-0.010364553,-0.15182407,-3.4125001,-4.8375,-37.78125
1763129397081,-1.0175478,6.706484,6.8542404,-0.008704823,-0.035124727,0.0368046,0.37106258,-0.010364553,-0.15182407,-3.4125001,-4.8375,-37.78125
1763129397098,-1.0175478,6.706484,6.8542404,-0.008704823,-0.035124727,0.0368046,0.37106258,-0.010364553,-0.15182407,-1.2,-2.86875,-35.381252
1763129397100,-1.0175478,6.706484,6.8542404,-0.008704823,-0.035124727,0.0368046,0.37073466,-0.010865989,-0.15189399,-1.2,-2.86875,-35.381252
1763129397102,-0.84107715,6.8398833,6.9278197,-0.008704823,-0.035124727,0.0368046,0.37073466,-0.010865989,-0.15189399,-1.2,-2.86875,-35.381252
1763129397104,-0.84107715,6.8398833,6.9278197,-0.030237807,-0.052076224,0.016798781,0.37073466,-0.010865989,-0.15189399,-1.2,-2.86875,-35.381252
1763129397118,-0.84107715,6.8398833,6.9278197,-0.030237807,-0.052076224,0.016798781,0.37073466,-0.010865989,-0.15189399,-2.04375,-1.4625001,-37.5
1763129397121,-0.84107715,6.8398833,6.9278197,-0.027947064,-0.039095346,-0.008552107,0.37073466,-0.010865989,-0.15189399,-2.04375,-1.4625001,-37.5
1763129397122,-0.84107715,6.8398833,6.9278197,-0.027947064,-0.039095346,-0.008552107,0.37045857,-0.011170486,-0.15208499,-2.04375,-1.4625001,-37.5
1763129397123,-0.8356933,6.8404818,7.0462646,-0.027947064,-0.039095346,-0.008552107,0.37045857,-0.011170486,-0.15208499,-2.04375,-1.4625001,-37.5
1763129397138,-0.8356933,6.8404818,7.0462646,-0.027947064,-0.039095346,-0.008552107,0.37045857,-0.011170486,-0.15208499,-2.53125,-2.53125,-36.15
1763129397142,-0.8356933,6.8404818,7.0462646,-0.027947064,-0.028099779,-0.020616686,0.37045857,-0.011170486,-0.15208499,-2.53125,-2.53125,-36.15
1763129397143,-0.971486,6.760322,7.0408807,-0.027947064,-0.028099779,-0.020616686,0.37045857,-0.011170486,-0.15208499,-2.53125,-2.53125,-36.15
1763129397158,-0.971486,6.760322,7.0408807,-0.027947064,-0.028099779,-0.020616686,0.37045857,-0.011170486,-0.15208499,-3.1125002,-2.8312502,-36.09375
1763129397162,-0.8961121,6.806384,7.1132636,-0.027947064,-0.028099779,-0.020616686,0.37045857,-0.011170486,-0.15208499,-3.1125002,-2.8312502,-36.09375
1763129397163,-0.8961121,6.806384,7.1132636,-0.008857539,-0.03619374,0.0065667965,0.37045857,-0.011170486,-0.15208499,-3.1125002,-2.8312502,-36.09375
1763129397166,-0.8961121,6.806384,7.1132636,-0.008857539,-0.03619374,0.0065667965,0.3703874,-0.011373141,-0.15210685,-3.1125002,-2.8312502,-36.09375
1763129397168,-0.8961121,6.806384,7.1132636,-0.008857539,-0.03619374,0.0065667965,0.37041932,-0.011665313,-0.15229934,-3.1125002,-2.8312502,-36.09375
1763129397178,-0.8961121,6.806384,7.1132636,-0.008857539,-0.03619374,0.0065667965,0.37041932,-0.011665313,-0.15229934,-2.4750001,-2.8500001,-35.756252
1763129397185,-0.8961121,6.806384,7.1132636,-0.008246674,-0.045203995,-0.020158539,0.37041932,-0.011665313,-0.15229934,-2.4750001,-2.8500001,-35.756252
1763129397186,-0.8961121,6.806384,7.1132636,-0.008246674,-0.045203995,-0.020158539,0.3704051,-0.012010621,-0.15259805,-2.4750001,-2.8500001,-35.756252
1763129397188,-0.6843473,6.930811,6.999604,-0.008246674,-0.045203995,-0.020158539,0.3704051,-0.012010621,-0.15259805,-2.4750001,-2.8500001,-35.756252
1763129397200,-0.6843473,6.930811,6.999604,-0.008246674,-0.045203995,-0.020158539,0.3704051,-0.012010621,-0.15259805,-2.41875,-1.7062501,-35.5875
1763129397204,-0.6843473,6.930811,6.999604,-0.008246674,-0.045203995,-0.020158539,0.37008488,-0.012145215,-0.15298367,-2.41875,-1.7062501,-35.5875
1763129397206,-0.7573284,6.875776,6.832107,-0.008246674,-0.045203995,-0.020158539,0.37008488,-0.012145215,-0.15298367,-2.41875,-1.7062501,-35.5875
1763129397208,-0.7573284,6.875776,6.832107,-0.06658426,-0.045203995,-0.09636392,0.37008488,-0.012145215,-0.15298367,-2.41875,-1.7062501,-35.5875
1763129397218,-0.7573284,6.875776,6.832107,-0.06658426,-0.045203995,-0.09636392,0.37008488,-0.012145215,-0.15298367,-1.3687501,-0.3375,-35.34375
1763129397226,-0.7573284,6.875776,6.832107,-0.14798199,-0.031917684,-0.10216714,0.37008488,-0.012145215,-0.15298367,-1.3687501,-0.3375,-35.34375
1763129397230,-0.90807617,6.739983,6.8021965,-0.14798199,-0.031917684,-0.10216714,0.37008488,-0.012145215,-0.15298367,-1.3687501,-0.3375,-35.34375
1763129397238,-0.90807617,6.739983,6.8021965,-0.14798199,-0.031917684,-0.10216714,0.36917305,-0.011927468,-0.1535198,-1.3687501,-0.3375,-35.34375
1763129397239,-0.90807617,6.739983,6.8021965,-0.14798199,-0.031917684,-0.10216714,0.36917305,-0.011927468,-0.1535198,-2.8500001,-2.2687502,-34.65
1763129397249,-0.90807617,6.739983,6.8021965,-0.19807291,-0.043524116,-0.08307761,0.36917305,-0.011927468,-0.1535198,-2.8500001,-2.2687502,-34.65
1763129397250,-1.0336994,6.7441707,6.963114,-0.19807291,-0.043524116,-0.08307761,0.36917305,-0.011927468,-0.1535198,-2.8500001,-2.2687502,-34.65
1763129397257,-1.0336994,6.7441707,6.963114,-0.19807291,-0.043524116,-0.08307761,0.36770898,-0.011679359,-0.15434384,-2.8500001,-2.2687502,-34.65
1763129397258,-1.0336994,6.7441707,6.963114,-0.19807291,-0.043524116,-0.08307761,0.36770898,-0.011679359,-0.15434384,-3.54375,-3.4125001,-35.475002
1763129397268,-1.0336994,6.7441707,6.963114,-0.16676609,-0.05299252,-0.09315688,0.36770898,-0.011679359,-0.15434384,-3.54375,-3.4125001,-35.475002
1763129397269,-1.0959128,6.6167526,7.1449685,-0.16676609,-0.05299252,-0.09315688,0.36770898,-0.011679359,-0.15434384,-3.54375,-3.4125001,-35.475002
1763129397277,-1.0959128,6.6167526,7.1449685,-0.16676609,-0.05299252,-0.09315688,0.3664228,-0.011444116,-0.15561223,-3.54375,-3.4125001,-35.475002
1763129397278,-1.0959128,6.6167526,7.1449685,-0.16676609,-0.05299252,-0.09315688,0.3664228,-0.011444116,-0.15561223,-4.1625004,-3.54375,-34.85625
1763129397288,-1.0959128,6.6167526,7.1449685,-0.12202024,-0.05497783,-0.107054055,0.3664228,-0.011444116,-0.15561223,-4.1625004,-3.54375,-34.85625
1763129397289,-1.0606186,6.541977,7.0396843,-0.12202024,-0.05497783,-0.107054055,0.3664228,-0.011444116,-0.15561223,-4.1625004,-3.54375,-34.85625
1763129397300,-1.0606186,6.541977,7.0396843,-0.12202024,-0.05497783,-0.107054055,0.36526212,-0.011208638,-0.15726838,-4.1625004,-3.54375,-34.85625
1763129397301,-1.0606186,6.541977,7.0396843,-0.12202024,-0.05497783,-0.107054055,0.36526212,-0.011208638,-0.15726838,-2.90625,-2.60625,-35.49375
1763129397310,-1.0606186,6.541977,7.0396843,-0.12614357,-0.099418245,-0.12415826,0.36526212,-0.011208638,-0.15726838,-2.90625,-2.60625,-35.49375
1763129397311,-0.8757731,6.586244,6.835098,-0.12614357,-0.099418245,-0.12415826,0.36526212,-0.011208638,-0.15726838,-2.90625,-2.60625,-35.49375
1763129397318,-0.8757731,6.586244,6.835098,-0.12614357,-0.099418245,-0.12415826,0.36405155,-0.011353855,-0.15915163,-2.90625,-2.60625,-35.49375
1763129397319,-0.8757731,6.586244,6.835098,-0.12614357,-0.099418245,-0.12415826,0.36405155,-0.011353855,-0.15915163,-4.6125,-3.16875,-34.631252
1763129397331,-0.8757731,6.586244,6.835098,-0.18799363,-0.11499529,-0.16111559,0.36405155,-0.011353855,-0.15915163,-4.6125,-3.16875,-34.631252
1763129397332,-0.7286145,6.6676,6.814759,-0.18799363,-0.11499529,-0.16111559,0.36405155,-0.011353855,-0.15915163,-4.6125,-3.16875,-34.631252
1763129397338,-0.7286145,6.6676,6.814759,-0.18799363,-0.11499529,-0.16111559,0.36251745,-0.011559629,-0.16086718,-4.6125,-3.16875,-34.631252
1763129397339,-0.7286145,6.6676,6.814759,-0.18799363,-0.11499529,-0.16111559,0.36251745,-0.011559629,-0.16086718,-3.6937501,-2.325,-37.3125
1763129397352,-0.7286145,6.6676,6.814759,-0.2593121,-0.13271037,-0.20189081,0.36251745,-0.011559629,-0.16086718,-3.6937501,-2.325,-37.3125
1763129397353,-1.0223335,6.4797635,6.8865438,-0.2593121,-0.13271037,-0.20189081,0.36251745,-0.011559629,-0.16086718,-3.6937501,-2.325,-37.3125
1763129397357,-1.0223335,6.4797635,6.8865438,-0.2593121,-0.13271037,-0.20189081,0.36042875,-0.011796185,-0.16258602,-3.6937501,-2.325,-37.3125
1763129397358,-1.0223335,6.4797635,6.8865438,-0.2593121,-0.13271037,-0.20189081,0.36042875,-0.011796185,-0.16258602,-2.8125,-0.82500005,-35.79375
1763129397373,-1.0223335,6.4797635,6.8865438,-0.2751946,-0.12583815,-0.15989386,0.36042875,-0.011796185,-0.16258602,-2.8125,-0.82500005,-35.79375
1763129397374,-1.3609179,6.285347,7.1527452,-0.2751946,-0.12583815,-0.15989386,0.36042875,-0.011796185,-0.16258602,-2.8125,-0.82500005,-35.79375
1763129397378,-1.3609179,6.285347,7.1527452,-0.2751946,-0.12583815,-0.15989386,0.36042875,-0.011796185,-0.16258602,-4.21875,-3.0937502,-36.65625
1763129397380,-1.3609179,6.285347,7.1527452,-0.2751946,-0.12583815,-0.15989386,0.35802576,-0.011833843,-0.16469777,-4.21875,-3.0937502,-36.65625
1763129397394,-1.3609179,6.285347,7.1527452,-0.23686282,-0.13271037,-0.07192933,0.35802576,-0.011833843,-0.16469777,-4.21875,-3.0937502,-36.65625
1763129397395,-1.1228321,6.2979093,7.409375,-0.23686282,-0.13271037,-0.07192933,0.35802576,-0.011833843,-0.16469777,-4.21875,-3.0937502,-36.65625
1763129397398,-1.1228321,6.2979093,7.409375,-0.23686282,-0.13271037,-0.07192933,0.3555903,-0.0120320385,-0.16698712,-4.21875,-3.0937502,-36.65625
1763129397399,-1.1228321,6.2979093,7.409375,-0.23686282,-0.13271037,-0.07192933,0.3555903,-0.0120320385,-0.16698712,-3.43125,-0.975,-35.175003
1763129397416,-1.1228321,6.2979093,7.409375,-0.18234314,-0.13148865,-0.03604102,0.3555903,-0.0120320385,-0.16698712,-3.43125,-0.975,-35.175003
1763129397417,-0.74835527,6.4941206,7.4656067,-0.18234314,-0.13148865,-0.03604102,0.3555903,-0.0120320385,-0.16698712,-3.43125,-0.975,-35.175003
1763129397420,-0.74835527,6.4941206,7.4656067,-0.18234314,-0.13148865,-0.03604102,0.35343176,-0.0126726525,-0.1684044,-3.43125,-0.975,-35.175003
1763129397421,-0.74835527,6.4941206,7.4656067,-0.18234314,-0.13148865,-0.03604102,0.35343176,-0.0126726525,-0.1684044,-4.40625,-2.9437501,-34.03125
1763129397436,-0.74835527,6.4941206,7.4656067,-0.14385866,-0.10797035,-0.06429352,0.35343176,-0.0126726525,-0.1684044,-4.40625,-2.9437501,-34.03125
1763129397437,-0.6472585,6.5084777,7.409375,-0.14385866,-0.10797035,-0.06429352,0.35343176,-0.0126726525,-0.1684044,-4.40625,-2.9437501,-34.03125
1763129397439,-0.6472585,6.5084777,7.409375,-0.14385866,-0.10797035,-0.06429352,0.35184366,-0.013379569,-0.16893041,-4.40625,-2.9437501,-34.03125
1763129397442,-0.6472585,6.5084777,7.409375,-0.14385866,-0.10797035,-0.06429352,0.35184366,-0.013379569,-0.16893041,-4.18125,-3.3937502,-35.5125
1763129397458,-0.6472585,6.5084777,7.409375,-0.14385866,-0.10797035,-0.06429352,0.35051665,-0.013795931,-0.16928622,-4.18125,-3.3937502,-35.5125
1763129397459,-0.6472585,6.5084777,7.409375,-0.13377939,-0.07498365,-0.08613193,0.35051665,-0.013795931,-0.16928622,-4.18125,-3.3937502,-35.5125
1763129397460,-0.6472585,6.5084777,7.409375,-0.13377939,-0.07498365,-0.08613193,0.35051665,-0.013795931,-0.16928622,-3.8812501,-1.5375,-33.1875
1763129397463,-0.78664047,6.4588265,7.323832,-0.13377939,-0.07498365,-0.08613193,0.35051665,-0.013795931,-0.16928622,-3.8812501,-1.5375,-33.1875
1763129397478,-0.78664047,6.4588265,7.323832,-0.13377939,-0.07498365,-0.08613193,0.34917906,-0.013777982,-0.16986565,-3.8812501,-1.5375,-33.1875
1763129397479,-0.78664047,6.4588265,7.323832,-0.15118903,-0.04657844,-0.08506292,0.34917906,-0.013777982,-0.16986565,-3.8812501,-1.5375,-33.1875
1763129397480,-0.910469,6.3918276,7.1898336,-0.15118903,-0.04657844,-0.08506292,0.34917906,-0.013777982,-0.16986565,-3.8812501,-1.5375,-33.1875
1763129397481,-0.910469,6.3918276,7.1898336,-0.15118903,-0.04657844,-0.08506292,0.34917906,-0.013777982,-0.16986565,-5.34375,-2.53125,-35.775
1763129397498,-0.910469,6.3918276,7.1898336,-0.15118903,-0.04657844,-0.08506292,0.34917906,-0.013777982,-0.16986565,-5.5687504,-2.90625,-34.237503
1763129397499,-0.910469,6.3918276,7.1898336,-0.15699224,-0.06933315,-0.06017018,0.34917906,-0.013777982,-0.16986565,-5.5687504,-2.90625,-34.237503
1763129397499,-0.910469,6.3918276,7.1898336,-0.15699224,-0.06933315,-0.06017018,0.3478737,-0.013927121,-0.17056254,-5.5687504,-2.90625,-34.237503
1763129397501,-0.8769695,6.3134627,7.245467,-0.15699224,-0.06933315,-0.06017018,0.3478737,-0.013927121,-0.17056254,-5.5687504,-2.90625,-34.237503
1763129397518,-0.8769695,6.3134627,7.245467,-0.15699224,-0.06933315,-0.06017018,0.3478737,-0.013927121,-0.17056254,-4.125,-2.25,-34.29375
1763129397519,-0.8769695,6.3134627,7.245467,-0.14019346,-0.097432934,-0.04382955,0.3478737,-0.013927121,-0.17056254,-4.125,-2.25,-34.29375
1763129397520,-0.8769695,6.3134627,7.245467,-0.14019346,-0.097432934,-0.04382955,0.34655792,-0.014457101,-0.17119522,-4.125,-2.25,-34.29375
1763129397521,-0.70648086,6.3475604,7.3746796,-0.14019346,-0.097432934,-0.04382955,0.34655792,-0.014457101,-0.17119522,-4.125,-2.25,-34.29375
1763129397538,-0.70648086,6.3475604,7.3746796,-0.14019346,-0.097432934,-0.04382955,0.34655792,-0.014457101,-0.17119522,-4.21875,-1.5,-37.537502
1763129397542,-0.70648086,6.3475604,7.3746796,-0.14019346,-0.097432934,-0.04382955,0.34552392,-0.015118617,-0.17153652,-4.21875,-1.5,-37.537502
1763129397543,-0.70648086,6.3475604,7.3746796,-0.101708986,-0.093309596,-0.056963142,0.34552392,-0.015118617,-0.17153652,-4.21875,-1.5,-37.537502
1763129397544,-0.7645068,6.3589263,7.594819,-0.101708986,-0.093309596,-0.056963142,0.34552392,-0.015118617,-0.17153652,-4.21875,-1.5,-37.537502
1763129397558,-0.7645068,6.3589263,7.594819,-0.101708986,-0.093309596,-0.056963142,0.34552392,-0.015118617,-0.17153652,-2.68125,0.80625004,-36.487503
1763129397562,-0.7645068,6.3589263,7.594819,-0.057115857,-0.035888307,-0.07269291,0.34552392,-0.015118617,-0.17153652,-2.68125,0.80625004,-36.487503
1763129397563,-0.88414794,6.242276,7.7144604,-0.057115857,-0.035888307,-0.07269291,0.34552392,-0.015118617,-0.17153652,-2.68125,0.80625004,-36.487503
1763129397564,-0.88414794,6.242276,7.7144604,-0.057115857,-0.035888307,-0.07269291,0.3448414,-0.01522029,-0.17205109,-2.68125,0.80625004,-36.487503
1763129397577,-0.88414794,6.242276,7.7144604,-0.057115857,-0.035888307,-0.07269291,0.3448414,-0.01522029,-0.17205109,-3.6750002,-1.03125,-35.98125
1763129397583,-0.88414794,6.242276,7.7144604,-0.007177661,0.016951498,-0.05864302,0.3448414,-0.01522029,-0.17205109,-3.6750002,-1.03125,-35.98125
1763129397584,-0.88414794,6.242276,7.7144604,-0.007177661,0.016951498,-0.05864302,0.3444982,-0.014852476,-0.17263672,-3.6750002,-1.03125,-35.98125
1763129397586,-1.0755738,6.155536,7.7497544,-0.007177661,0.016951498,-0.05864302,0.3444982,-0.014852476,-0.17263672,-3.6750002,-1.03125,-35.98125
1763129397597,-1.0755738,6.155536,7.7497544,-0.007177661,0.016951498,-0.05864302,0.3444982,-0.014852476,-0.17263672,-6.4875,-4.0875,-35.850002
1763129397603,-1.0755738,6.155536,7.7497544,-0.007177661,0.016951498,-0.05864302,0.34473723,-0.014388837,-0.17328472,-6.4875,-4.0875,-35.850002
1763129397604,-1.1132607,6.1561346,7.670193,-0.007177661,0.016951498,-0.05864302,0.34473723,-0.014388837,-0.17328472,-6.4875,-4.0875,-35.850002
1763129397606,-1.1132607,6.1561346,7.670193,0.06139191,0.03695732,-0.019853106,0.34473723,-0.014388837,-0.17328472,-6.4875,-4.0875,-35.850002
1763129397618,-1.1132607,6.1561346,7.670193,0.06139191,0.03695732,-0.019853106,0.34473723,-0.014388837,-0.17328472,-5.0625,-3.5812502,-34.95
1763129397625,-0.9637093,6.1944194,7.5553374,0.06139191,0.03695732,-0.019853106,0.34473723,-0.014388837,-0.17328472,-5.0625,-3.5812502,-34.95
1763129397626,-0.9637093,6.1944194,7.5553374,0.12797616,0.023212861,-0.0059559317,0.34473723,-0.014388837,-0.17328472,-5.0625,-3.5812502,-34.95
1763129397627,-0.9637093,6.1944194,7.5553374,0.12797616,0.023212861,-0.0059559317,0.34565625,-0.0141898515,-0.17385975,-5.0625,-3.5812502,-34.95
1763129397638,-0.9637093,6.1944194,7.5553374,0.12797616,0.023212861,-0.0059559317,0.34565625,-0.0141898515,-0.17385975,-3.8437502,-1.5562501,-35.287502
1763129397645,-0.9637093,6.1944194,7.5553374,0.12812889,0.047494736,-0.027183482,0.34565625,-0.0141898515,-0.17385975,-3.8437502,-1.5562501,-35.287502
1763129397646,-0.8650054,6.3182483,7.245467,0.12812889,0.047494736,-0.027183482,0.34565625,-0.0141898515,-0.17385975,-3.8437502,-1.5562501,-35.287502
1763129397659,-0.8650054,6.3182483,7.245467,0.12812889,0.047494736,-0.027183482,0.34672585,-0.013834857,-0.17412806,-3.8437502,-1.5562501,-35.287502
1763129397660,-0.8650054,6.3182483,7.245467,0.12812889,0.047494736,-0.027183482,0.34672585,-0.013834857,-0.17412806,-4.3500004,-2.325,-36.600002
1763129397667,-1.0372887,6.2721863,7.0408807,0.12812889,0.047494736,-0.027183482,0.34672585,-0.013834857,-0.17412806,-4.3500004,-2.325,-36.600002
1763129397668,-1.0372887,6.2721863,7.0408807,0.0650571,0.059712034,-0.05131264,0.34672585,-0.013834857,-0.17412806,-4.3500004,-2.325,-36.600002
1763129397677,-1.0372887,6.2721863,7.0408807,0.0650571,0.059712034,-0.05131264,0.3476462,-0.013240842,-0.17410257,-4.3500004,-2.325,-36.600002
1763129397678,-1.0372887,6.2721863,7.0408807,0.0650571,0.059712034,-0.05131264,0.3476462,-0.013240842,-0.17410257,-2.9437501,0.09375,-36.675003
1763129397687,-1.0372887,6.2721863,7.0408807,0.02046397,0.034666575,-0.028099779,0.3476462,-0.013240842,-0.17410257,-2.9437501,0.09375,-36.675003
1763129397688,-1.1533405,6.189634,7.024131,0.02046397,0.034666575,-0.028099779,0.3476462,-0.013240842,-0.17410257,-2.9437501,0.09375,-36.675003
1763129397700,-1.1533405,6.189634,7.024131,0.02046397,0.034666575,-0.028099779,0.3476462,-0.013240842,-0.17410257,-3.525,-1.8000001,-36.80625
1763129397701,-1.1533405,6.189634,7.024131,0.02046397,0.034666575,-0.028099779,0.34826684,-0.01273669,-0.17433801,-3.525,-1.8000001,-36.80625
1763129397709,-1.1533405,6.189634,7.024131,0.026725333,-0.0044287695,-0.005497783,0.34826684,-0.01273669,-0.17433801,-3.525,-1.8000001,-36.80625
1763129397710,-0.98943216,6.2512493,7.151549,0.026725333,-0.0044287695,-0.005497783,0.34826684,-0.01273669,-0.17433801,-3.525,-1.8000001,-36.80625
1763129397718,-0.98943216,6.2512493,7.151549,0.026725333,-0.0044287695,-0.005497783,0.3487987,-0.012588794,-0.17480078,-3.525,-1.8000001,-36.80625
1763129397719,-0.98943216,6.2512493,7.151549,0.026725333,-0.0044287695,-0.005497783,0.3487987,-0.012588794,-0.17480078,-3.16875,-2.6625001,-34.2
1763129397730,-0.98943216,6.2512493,7.151549,0.028710645,0.004123337,-0.017409647,0.3487987,-0.012588794,-0.17480078,-3.16875,-2.6625001,-34.2
1763129397731,-0.8745767,6.3104715,7.1946197,0.028710645,0.004123337,-0.017409647,0.3487987,-0.012588794,-0.17480078,-3.16875,-2.6625001,-34.2
1763129397739,-0.8745767,6.3104715,7.1946197,0.028710645,0.004123337,-0.017409647,0.3492522,-0.012499219,-0.17497732,-3.16875,-2.6625001,-34.2
1763129397740,-0.8745767,6.3104715,7.1946197,0.028710645,0.004123337,-0.017409647,0.3492522,-0.012499219,-0.17497732,-4.4437504,-1.7062501,-36.6375
1763129397751,-0.8745767,6.3104715,7.1946197,0.0013744457,0.018631376,-0.043371398,0.3492522,-0.012499219,-0.17497732,-4.4437504,-1.7062501,-36.6375
1763129397751,-0.9457632,6.328418,7.1623163,0.0013744457,0.018631376,-0.043371398,0.3492522,-0.012499219,-0.17497732,-4.4437504,-1.7062501,-36.6375
1763129397757,-0.9457632,6.328418,7.1623163,0.0013744457,0.018631376,-0.043371398,0.3494649,-0.012242912,-0.17503093,-4.4437504,-1.7062501,-36.6375
1763129397758,-0.9457632,6.328418,7.1623163,0.0013744457,0.018631376,-0.043371398,0.3494649,-0.012242912,-0.17503093,-6.0937505,-3.35625,-35.925003
1763129397771,-0.9457632,6.328418,7.1623163,-0.04092794,0.027183482,-0.043524116,0.3494649,-0.012242912,-0.17503093,-6.0937505,-3.35625,-35.925003
1763129397772,-1.0366904,6.3014984,7.2023964,-0.04092794,0.027183482,-0.043524116,0.3494649,-0.012242912,-0.17503093,-6.0937505,-3.35625,-35.925003
1763129397778,-1.0366904,6.3014984,7.2023964,-0.04092794,0.027183482,-0.043524116,0.34936255,-0.0117628155,-0.17517073,-6.0937505,-3.35625,-35.925003
1763129397779,-1.0366904,6.3014984,7.2023964,-0.04092794,0.027183482,-0.043524116,0.34936255,-0.0117628155,-0.17517073,-4.7625003,-2.23125,-34.78125
1763129397793,-1.0366904,6.3014984,7.2023964,-0.07589995,0.017409647,-0.03176497,0.34936255,-0.0117628155,-0.17517073,-4.7625003,-2.23125,-34.78125
1763129397794,-1.0989038,6.273981,7.368099,-0.07589995,0.017409647,-0.03176497,0.34936255,-0.0117628155,-0.17517073,-4.7625003,-2.23125,-34.78125
1763129397799,-1.0989038,6.273981,7.368099,-0.07589995,0.017409647,-0.03176497,0.3488636,-0.011288461,-0.1754831,-4.7625003,-2.23125,-34.78125
1763129397800,-1.0989038,6.273981,7.368099,-0.07589995,0.017409647,-0.03176497,0.3488636,-0.011288461,-0.1754831,-3.6937501,-2.4750001,-35.30625
1763129397816,-1.0989038,6.273981,7.368099,-0.057726722,0.0108428495,-0.008399391,0.3488636,-0.011288461,-0.1754831,-3.6937501,-2.4750001,-35.30625
1763129397817,-1.1330016,6.306284,7.535597,-0.057726722,0.0108428495,-0.008399391,0.3488636,-0.011288461,-0.1754831,-3.6937501,-2.4750001,-35.30625
1763129397819,-1.1330016,6.306284,7.535597,-0.057726722,0.0108428495,-0.008399391,0.348342,-0.010957357,-0.17580436,-3.6937501,-2.4750001,-35.30625
1763129397820,-1.1330016,6.306284,7.535597,-0.057726722,0.0108428495,-0.008399391,0.348342,-0.010957357,-0.17580436,-3.3000002,-1.7437501,-35.381252
1763129397835,-1.1330016,6.306284,7.535597,-0.0108428495,-0.0073303776,-0.010384701,0.348342,-0.010957357,-0.17580436,-3.3000002,-1.7437501,-35.381252
1763129397836,-0.9840483,6.385247,7.647461,-0.0108428495,-0.0073303776,-0.010384701,0.348342,-0.010957357,-0.17580436,-3.3000002,-1.7437501,-35.381252
1763129397837,-0.9840483,6.385247,7.647461,-0.0108428495,-0.0073303776,-0.010384701,0.34811497,-0.010855131,-0.1762778,-3.3000002,-1.7437501,-35.381252
1763129397838,-0.9840483,6.385247,7.647461,-0.0108428495,-0.0073303776,-0.010384701,0.34811497,-0.010855131,-0.1762778,-4.5,-1.5375,-35.04375
1763129397856,-0.9840483,6.385247,7.647461,0.022907428,0.020311253,-0.022754714,0.34811497,-0.010855131,-0.1762778,-4.5,-1.5375,-35.04375
1763129397857,-0.9349955,6.361319,7.630113,0.022907428,0.020311253,-0.022754714,0.34811497,-0.010855131,-0.1762778,-4.5,-1.5375,-35.04375
1763129397858,-0.9349955,6.361319,7.630113,0.022907428,0.020311253,-0.022754714,0.34820512,-0.0106571885,-0.1763639,-4.5,-1.5375,-35.04375
1763129397860,-0.9349955,6.361319,7.630113,0.022907428,0.020311253,-0.022754714,0.34820512,-0.0106571885,-0.1763639,-3.7500002,-2.1750002,-35.4
1763129397878,-0.9349955,6.361319,7.630113,0.022907428,0.020311253,-0.022754714,0.34842268,-0.010151867,-0.17625195,-3.7500002,-2.1750002,-35.4
1763129397879,-0.9349955,6.361319,7.630113,0.032375835,0.054519683,-0.03176497,0.34842268,-0.010151867,-0.17625195,-3.7500002,-2.1750002,-35.4
1763129397880,-0.9349955,6.361319,7.630113,0.032375835,0.054519683,-0.03176497,0.34842268,-0.010151867,-0.17625195,-4.36875,-2.4562502,-33.84375
1763129397882,-1.1306087,6.2931237,7.329814,0.032375835,0.054519683,-0.03176497,0.34842268,-0.010151867,-0.17625195,-4.36875,-2.4562502,-33.84375
1763129397899,-1.1306087,6.2931237,7.329814,0.003817905,0.031306818,-0.0015271619,0.34842268,-0.010151867,-0.17625195,-4.36875,-2.4562502,-33.84375
1763129397900,-1.1306087,6.2931237,7.329814,0.003817905,0.031306818,-0.0015271619,0.348598,-0.009737438,-0.17636095,-4.36875,-2.4562502,-33.84375
1763129397900,-1.1306087,6.2931237,7.329814,0.003817905,0.031306818,-0.0015271619,0.348598,-0.009737438,-0.17636095,-4.5,-1.5375,-35.34375
1763129397901,-1.1976078,6.281758,7.171888,0.003817905,0.031306818,-0.0015271619,0.348598,-0.009737438,-0.17636095,-4.5,-1.5375,-35.34375
1763129397917,-1.1976078,6.281758,7.171888,0.003817905,0.031306818,-0.0015271619,0.348598,-0.009737438,-0.17636095,-5.45625,-3.525,-34.631252
1763129397918,-1.1976078,6.281758,7.171888,-0.027183482,0.024281874,0.018325943,0.348598,-0.009737438,-0.17636095,-5.45625,-3.525,-34.631252
1763129397919,-1.1976078,6.281758,7.171888,-0.027183482,0.024281874,0.018325943,0.3486292,-0.009362415,-0.1764682,-5.45625,-3.525,-34.631252
1763129397919,-0.93619186,6.3158555,7.328019,-0.027183482,0.024281874,0.018325943,0.3486292,-0.009362415,-0.1764682,-5.45625,-3.525,-34.631252
1763129397937,-0.93619186,6.3158555,7.328019,-0.027183482,0.024281874,0.018325943,0.3486292,-0.009362415,-0.1764682,-8.2875,-4.96875,-33.881252
1763129397940,-0.93619186,6.3158555,7.328019,-0.013591741,0.057879437,-0.016951498,0.3486292,-0.009362415,-0.1764682,-8.2875,-4.96875,-33.881252
1763129397941,-0.93619186,6.3158555,7.328019,-0.013591741,0.057879437,-0.016951498,0.34867138,-0.008816293,-0.17614776,-8.2875,-4.96875,-33.881252
1763129397941,-0.9128618,6.3044896,7.4309106,-0.013591741,0.057879437,-0.016951498,0.34867138,-0.008816293,-0.17614776,-8.2875,-4.96875,-33.881252
1763129397958,-0.9128618,6.3044896,7.4309106,-0.013591741,0.057879437,-0.016951498,0.34867138,-0.008816293,-0.17614776,-4.9500003,-2.7562501,-34.0875
1763129397960,-0.9128618,6.3044896,7.4309106,0.019853106,0.074525505,-0.03848448,0.34867138,-0.008816293,-0.17614776,-4.9500003,-2.7562501,-34.0875
1763129397961,-0.9128618,6.3044896,7.4309106,0.019853106,0.074525505,-0.03848448,0.3489294,-0.008120358,-0.17590307,-4.9500003,-2.7562501,-34.0875
1763129397961,-1.1736795,6.202196,7.2586274,0.019853106,0.074525505,-0.03848448,0.3489294,-0.008120358,-0.17590307,-4.9500003,-2.7562501,-34.0875
1763129397982,-1.1736795,6.202196,7.2586274,0.019853106,0.074525505,-0.03848448,0.3489294,-0.008120358,-0.17590307,-3.9375002,-1.8750001,-34.78125
1763129397984,-1.1736795,6.202196,7.2586274,0.017715078,0.03497201,-0.005497783,0.3489294,-0.008120358,-0.17590307,-3.9375002,-1.8750001,-34.78125
1763129397985,-1.1736795,6.202196,7.2586274,0.017715078,0.03497201,-0.005497783,0.34920093,-0.007671657,-0.17611907,-3.9375002,-1.8750001,-34.78125
1763129397986,-1.3351951,6.172286,7.2323065,0.017715078,0.03497201,-0.005497783,0.34920093,-0.007671657,-0.17611907,-3.9375002,-1.8750001,-34.78125
1763129398000,-1.3351951,6.172286,7.2323065,0.017715078,0.03497201,-0.005497783,0.34920093,-0.007671657,-0.17611907,-5.2125,-3.3187501,-35.831253
1763129398004,-1.3351951,6.172286,7.2323065,6.108648E-4,0.062308207,0.035582874,0.34920093,-0.007671657,-0.17611907,-5.2125,-3.3187501,-35.831253
1763129398005,-1.3351951,6.172286,7.2323065,6.108648E-4,0.062308207,0.035582874,0.34937862,-0.006921059,-0.17617263,-5.2125,-3.3187501,-35.831253
1763129398008,-1.0253245,6.216553,7.308877,6.108648E-4,0.062308207,0.035582874,0.34937862,-0.006921059,-0.17617263,-5.2125,-3.3187501,-35.831253
1763129398018,-1.0253245,6.216553,7.308877,6.108648E-4,0.062308207,0.035582874,0.34937862,-0.006921059,-0.17617263,-3.9375002,-2.53125,-35.9625
1763129398024,-1.0253245,6.216553,7.308877,6.108648E-4,0.062308207,0.035582874,0.3494471,-0.006418822,-0.17575885,-3.9375002,-2.53125,-35.9625
1763129398026,-1.0253245,6.216553,7.308877,3.054324E-4,0.05864302,0.007941242,0.3494471,-0.006418822,-0.17575885,-3.9375002,-2.53125,-35.9625
1763129398027,-1.0959128,6.202196,7.3860455,3.054324E-4,0.05864302,0.007941242,0.3494471,-0.006418822,-0.17575885,-3.9375002,-2.53125,-35.9625
1763129398037,-1.0959128,6.202196,7.3860455,3.054324E-4,0.05864302,0.007941242,0.3494471,-0.006418822,-0.17575885,-3.4687502,-2.2687502,-35.756252
1763129398045,-1.2490535,6.1160545,7.038488,3.054324E-4,0.05864302,0.007941242,0.3494471,-0.006418822,-0.17575885,-3.4687502,-2.2687502,-35.756252
1763129398046,-1.2490535,6.1160545,7.038488,3.054324E-4,0.05864302,0.007941242,0.34980884,-0.0059702634,-0.17532831,-3.4687502,-2.2687502,-35.756252
1763129398049,-1.2490535,6.1160545,7.038488,0.04016436,0.06307179,0.028710645,0.34980884,-0.0059702634,-0.17532831,-3.4687502,-2.2687502,-35.756252
1763129398062,-1.2490535,6.1160545,7.038488,0.04016436,0.06307179,0.028710645,0.34980884,-0.0059702634,-0.17532831,-4.8562503,-1.63125,-35.86875
1763129398066,-1.2490535,6.1160545,7.038488,0.07666353,-0.003817905,0.043218683,0.34980884,-0.0059702634,-0.17532831,-4.8562503,-1.63125,-35.86875
1763129398066,-1.410569,6.361319,5.8624153,0.07666353,-0.003817905,0.043218683,0.34980884,-0.0059702634,-0.17532831,-4.8562503,-1.63125,-35.86875
1763129398078,-1.410569,6.361319,5.8624153,0.07666353,-0.003817905,0.043218683,0.34980884,-0.0059702634,-0.17532831,-4.7625003,-2.3812501,-33.075
1763129398079,-1.410569,6.361319,5.8624153,0.07666353,-0.003817905,0.043218683,0.35067564,-0.0061255964,-0.1753734,-4.7625003,-2.3812501,-33.075
1763129398086,-1.410569,6.361319,5.8624153,-0.0980438,-0.2640463,0.083993904,0.35067564,-0.0061255964,-0.1753734,-4.7625003,-2.3812501,-33.075
1763129398087,-0.84107715,6.2177496,6.661618,-0.0980438,-0.2640463,0.083993904,0.35067564,-0.0061255964,-0.1753734,-4.7625003,-2.3812501,-33.075
1763129398099,-0.84107715,6.2177496,6.661618,-0.0980438,-0.2640463,0.083993904,0.3509862,-0.008358716,-0.17585856,-4.7625003,-2.3812501,-33.075
1763129398100,-0.84107715,6.2177496,6.661618,-0.0980438,-0.2640463,0.083993904,0.3509862,-0.008358716,-0.17585856,-4.21875,-1.63125,-35.081253
1763129398108,-0.84107715,6.2177496,6.661618,-0.29474226,-0.14950916,0.041538805,0.3509862,-0.008358716,-0.17585856,-4.21875,-1.63125,-35.081253
1763129398108,-0.4989035,6.4875402,7.3375907,-0.29474226,-0.14950916,0.041538805,0.3509862,-0.008358716,-0.17585856,-4.21875,-1.63125,-35.081253
1763129398117,-0.4989035,6.4875402,7.3375907,-0.29474226,-0.14950916,0.041538805,0.34851223,-0.009520383,-0.17539966,-4.21875,-1.63125,-35.081253
1763129398118,-0.4989035,6.4875402,7.3375907,-0.29474226,-0.14950916,0.041538805,0.34851223,-0.009520383,-0.17539966,-4.03125,-1.25625,-34.818752
1763129398129,-0.4989035,6.4875402,7.3375907,-0.2913825,-0.055435978,-0.06780599,0.34851223,-0.009520383,-0.17539966,-4.03125,-1.25625,-34.818752
1763129398129,-0.8817552,6.425327,8.149954,-0.2913825,-0.055435978,-0.06780599,0.34851223,-0.009520383,-0.17539966,-4.03125,-1.25625,-34.818752
1763129398138,-0.8817552,6.425327,8.149954,-0.2913825,-0.055435978,-0.06780599,0.3458659,-0.009762467,-0.17483795,-4.03125,-1.25625,-34.818752
1763129398139,-0.8817552,6.425327,8.149954,-0.2913825,-0.055435978,-0.06780599,0.3458659,-0.009762467,-0.17483795,-3.525,-1.95,-35.850002
1763129398150,-0.8817552,6.425327,8.149954,-0.14202607,-0.038789913,-0.043065965,0.3458659,-0.009762467,-0.17483795,-3.525,-1.95,-35.850002
1763129398151,-1.1886346,6.224928,8.116454,-0.14202607,-0.038789913,-0.043065965,0.3458659,-0.009762467,-0.17483795,-3.525,-1.95,-35.850002
1763129398158,-1.1886346,6.224928,8.116454,-0.14202607,-0.038789913,-0.043065965,0.3438896,-0.009894793,-0.17520778,-3.525,-1.95,-35.850002
1763129398159,-1.1886346,6.224928,8.116454,-0.14202607,-0.038789913,-0.043065965,0.3438896,-0.009894793,-0.17520778,-4.18125,-1.9312501,-34.0875
1763129398170,-1.1886346,6.224928,8.116454,-0.009926553,-0.05497783,-0.018936807,0.3438896,-0.009894793,-0.17520778,-4.18125,-1.9312501,-34.0875
1763129398171,-1.1312069,6.233901,8.19781,-0.009926553,-0.05497783,-0.018936807,0.3438896,-0.009894793,-0.17520778,-4.18125,-1.9312501,-34.0875
1763129398178,-1.1312069,6.233901,8.19781,-0.009926553,-0.05497783,-0.018936807,0.34304756,-0.010195316,-0.17624931,-4.18125,-1.9312501,-34.0875
1763129398179,-1.1312069,6.233901,8.19781,-0.009926553,-0.05497783,-0.018936807,0.34304756,-0.010195316,-0.17624931,-5.08125,-1.8375001,-35.5875
1763129398192,-1.1312069,6.233901,8.19781,0.029932374,0.0108428495,-0.008093959,0.34304756,-0.010195316,-0.17624931,-5.08125,-1.8375001,-35.5875
1763129398193,-1.1617154,6.031708,7.9633136,0.029932374,0.0108428495,-0.008093959,0.34304756,-0.010195316,-0.17624931,-5.08125,-1.8375001,-35.5875
1763129398200,-1.1617154,6.031708,7.9633136,0.029932374,0.0108428495,-0.008093959,0.3426375,-0.010045325,-0.17682506,-5.08125,-1.8375001,-35.5875
1763129398201,-1.1617154,6.031708,7.9633136,0.029932374,0.0108428495,-0.008093959,0.3426375,-0.010045325,-0.17682506,-4.8,-2.0812502,-34.518753
1763129398217,-1.1617154,6.031708,7.9633136,0.0858265,0.02565632,0.017104214,0.3426375,-0.010045325,-0.17682506,-4.8,-2.0812502,-34.518753
1763129398218,-1.1102697,6.2979093,7.4237323,0.0858265,0.02565632,0.017104214,0.3426375,-0.010045325,-0.17682506,-4.8,-2.0812502,-34.518753
1763129398218,-1.1102697,6.2979093,7.4237323,0.0858265,0.02565632,0.017104214,0.34279582,-0.009889893,-0.17723292,-4.8,-2.0812502,-34.518753
1763129398218,-1.1102697,6.2979093,7.4237323,0.0858265,0.02565632,0.017104214,0.34279582,-0.009889893,-0.17723292,-5.4750004,-1.6125001,-37.275
