timestamp,accX,accY,accZ,gyroX,gyroY,gyroZ,rotX,rotY,rotZ,magX,magY,magZ
1763129377179,0.41156548,6.142974,7.2705917,0.10476331,-0.13698642,0.07788526,0.3148822,-0.039634038,-0.13289526,-8.587501,-0.056250002,-33.45
1763129377179,0.41156548,6.142974,7.2705917,-0.14569125,0.048411034,-0.020311253,0.3148822,-0.039634038,-0.13289526,-8.587501,-0.056250002,-33.45
1763129377180,0.3044867,5.9228344,7.5864444,-0.14569125,0.048411034,-0.020311253,0.3148822,-0.039634038,-0.13289526,-8.587501,-0.056250002,-33.45
1763129377180,0.3044867,5.9228344,7.5864444,-0.14569125,0.048411034,-0.020311253,0.3148822,-0.039634038,-0.13289526,-11.043751,-0.13125001,-30.525002
1763129377197,0.3044867,5.9228344,7.5864444,-0.14569125,0.048411034,-0.020311253,0.3148822,-0.039634038,-0.13289526,-7.5750003,0.0,-34.0875
1763129377199,0.3044867,5.9228344,7.5864444,-0.17088942,0.074830934,-0.020311253,0.3148822,-0.039634038,-0.13289526,-7.5750003,0.0,-34.0875
1763129377199,0.3044867,5.9228344,7.5864444,-0.17088942,0.074830934,-0.020311253,0.31334752,-0.038672343,-0.13281082,-7.5750003,0.0,-34.0875
1763129377200,-0.15014961,5.816354,7.6797643,-0.17088942,0.074830934,-0.020311253,0.31334752,-0.038672343,-0.13281082,-7.5750003,0.0,-34.0875
1763129377217,-0.15014961,5.816354,7.6797643,-0.17088942,0.074830934,-0.020311253,0.31334752,-0.038672343,-0.13281082,-8.6625,1.85625,-32.925003
1763129377220,-0.15014961,5.816354,7.6797643,-0.0650571,-0.0074830935,-3.054324E-4,0.31334752,-0.038672343,-0.13281082,-8.6625,1.85625,-32.925003
1763129377221,-0.15014961,5.816354,7.6797643,-0.0650571,-0.0074830935,-3.054324E-4,0.31271106,-0.038664874,-0.13292664,-8.6625,1.85625,-32.925003
1763129377222,-0.032303106,5.8337016,7.732406,-0.0650571,-0.0074830935,-3.054324E-4,0.31271106,-0.038664874,-0.13292664,-8.6625,1.85625,-32.925003
1763129377238,-0.032303106,5.8337016,7.732406,-0.0650571,-0.0074830935,-3.054324E-4,0.31271106,-0.038664874,-0.13292664,-7.3875003,0.675,-36.61875
1763129377241,-0.032303106,5.8337016,7.732406,0.009468404,-0.030695954,-0.0129808765,0.31271106,-0.038664874,-0.13292664,-7.3875003,0.675,-36.61875
1763129377242,-0.032303106,5.8337016,7.732406,0.009468404,-0.030695954,-0.0129808765,0.31277522,-0.038963366,-0.13316733,-7.3875003,0.675,-36.61875
1763129377243,0.043070808,5.8881383,7.7910304,0.009468404,-0.030695954,-0.0129808765,0.31277522,-0.038963366,-0.13316733,-7.3875003,0.675,-36.61875
1763129377258,0.043070808,5.8881383,7.7910304,0.009468404,-0.030695954,-0.0129808765,0.31277522,-0.038963366,-0.13316733,-7.89375,-0.24375,-35.025
1763129377263,0.043070808,5.8881383,7.7910304,0.009468404,-0.030695954,-0.0129808765,0.3128904,-0.038870487,-0.13353859,-7.89375,-0.24375,-35.025
1763129377264,0.043070808,5.8881383,7.7910304,0.008857539,0.0036651888,-0.03649917,0.3128904,-0.038870487,-0.13353859,-7.89375,-0.24375,-35.025
1763129377264,-0.011365907,5.8468623,7.7108707,0.008857539,0.0036651888,-0.03649917,0.3128904,-0.038870487,-0.13353859,-7.89375,-0.24375,-35.025
1763129377278,-0.011365907,5.8468623,7.7108707,0.008857539,0.0036651888,-0.03649917,0.3128904,-0.038870487,-0.13353859,-7.93125,-0.22500001,-33.225002
1763129377283,-0.317049,5.631508,7.6366935,0.008857539,0.0036651888,-0.03649917,0.3128904,-0.038870487,-0.13353859,-7.93125,-0.22500001,-33.225002
1763129377284,-0.317049,5.631508,7.6366935,-0.047494736,0.041538805,-0.03848448,0.3128904,-0.038870487,-0.13353859,-7.93125,-0.22500001,-33.225002
1763129377285,-0.317049,5.631508,7.6366935,-0.047494736,0.041538805,-0.03848448,0.31251124,-0.038300384,-0.13380663,-7.93125,-0.22500001,-33.225002
1763129377297,-0.317049,5.631508,7.6366935,-0.047494736,0.041538805,-0.03848448,0.31251124,-0.038300384,-0.13380663,-7.9125004,-0.24375,-34.725002
1763129377305,-0.317049,5.631508,7.6366935,-0.047494736,0.041538805,-0.03848448,0.3117609,-0.038028248,-0.13369372,-7.9125004,-0.24375,-34.725002
1763129377306,-0.317049,5.631508,7.6366935,-0.07788526,0.023212861,0.022143848,0.3117609,-0.038028248,-0.13369372,-7.9125004,-0.24375,-34.725002
1763129377307,-0.3696911,5.616553,7.908877,-0.07788526,0.023212861,0.022143848,0.3117609,-0.038028248,-0.13369372,-7.9125004,-0.24375,-34.725002
1763129377318,-0.3696911,5.616553,7.908877,-0.07788526,0.023212861,0.022143848,0.3117609,-0.038028248,-0.13369372,-8.043751,0.84375006,-37.162502
1763129377325,-0.3696911,5.616553,7.908877,-0.051618073,0.021227552,0.041538805,0.3117609,-0.038028248,-0.13369372,-8.043751,0.84375006,-37.162502
1763129377327,-0.08733802,5.768497,8.069795,-0.051618073,0.021227552,0.041538805,0.3117609,-0.038028248,-0.13369372,-8.043751,0.84375006,-37.162502
1763129377338,-0.08733802,5.768497,8.069795,-0.051618073,0.021227552,0.041538805,0.31121913,-0.03786332,-0.13341072,-8.043751,0.84375006,-37.162502
1763129377339,-0.08733802,5.768497,8.069795,-0.051618073,0.021227552,0.041538805,0.31121913,-0.03786332,-0.13341072,-8.19375,-0.13125001,-33.91875
1763129377346,-0.08733802,5.768497,8.069795,-0.01970039,0.03252855,0.008552107,0.31121913,-0.03786332,-0.13341072,-8.19375,-0.13125001,-33.91875
1763129377347,-0.055633128,5.8277197,8.082955,-0.01970039,0.03252855,0.008552107,0.31121913,-0.03786332,-0.13341072,-8.19375,-0.13125001,-33.91875
1763129377357,-0.055633128,5.8277197,8.082955,-0.01970039,0.03252855,0.008552107,0.31102479,-0.037555818,-0.13325879,-8.19375,-0.13125001,-33.91875
1763129377358,-0.055633128,5.8277197,8.082955,-0.01970039,0.03252855,0.008552107,0.31102479,-0.037555818,-0.13325879,-6.4875,2.68125,-33.412502
1763129377367,-0.29790643,5.688338,7.954939,-0.01970039,0.03252855,0.008552107,0.31102479,-0.037555818,-0.13325879,-6.4875,2.68125,-33.412502
1763129377367,-0.29790643,5.688338,7.954939,0.0030543238,0.03176497,9.162972E-4,0.31102479,-0.037555818,-0.13325879,-6.4875,2.68125,-33.412502
1763129377378,-0.29790643,5.688338,7.954939,0.0030543238,0.03176497,9.162972E-4,0.3110639,-0.037283152,-0.13320242,-6.4875,2.68125,-33.412502
1763129377379,-0.29790643,5.688338,7.954939,0.0030543238,0.03176497,9.162972E-4,0.3110639,-0.037283152,-0.13320242,-8.475,0.91875005,-34.59375
1763129377388,-0.29790643,5.688338,7.954939,0.008399391,0.021532983,0.032375835,0.3110639,-0.037283152,-0.13320242,-8.475,0.91875005,-34.59375
1763129377388,-0.1788635,5.7780685,7.8436728,0.008399391,0.021532983,0.032375835,0.3110639,-0.037283152,-0.13320242,-8.475,0.91875005,-34.59375
1763129377397,-0.1788635,5.7780685,7.8436728,0.008399391,0.021532983,0.032375835,0.31112918,-0.03715594,-0.13286963,-8.475,0.91875005,-34.59375
1763129377398,-0.1788635,5.7780685,7.8436728,0.008399391,0.021532983,0.032375835,0.31112918,-0.03715594,-0.13286963,-7.4812503,0.99375004,-33.412502
1763129377408,-0.1788635,5.7780685,7.8436728,-0.006261364,0.03161225,0.028252495,0.31112918,-0.03715594,-0.13286963,-7.4812503,0.99375004,-33.412502
1763129377409,-0.014356935,5.8564334,7.746763,-0.006261364,0.03161225,0.028252495,0.31112918,-0.03715594,-0.13286963,-7.4812503,0.99375004,-33.412502
1763129377418,-0.014356935,5.8564334,7.746763,-0.006261364,0.03161225,0.028252495,0.31109262,-0.036952537,-0.13260812,-7.4812503,0.99375004,-33.412502
1763129377419,-0.014356935,5.8564334,7.746763,-0.006261364,0.03161225,0.028252495,0.31109262,-0.036952537,-0.13260812,-9.65625,-0.61875004,-32.86875
1763129377430,-0.014356935,5.8564334,7.746763,-0.023518294,0.03008509,0.0073303776,0.31109262,-0.036952537,-0.13260812,-9.65625,-0.61875004,-32.86875
1763129377431,0.084346995,5.9138613,7.719246,-0.023518294,0.03008509,0.0073303776,0.31109262,-0.036952537,-0.13260812,-9.65625,-0.61875004,-32.86875
1763129377437,0.084346995,5.9138613,7.719246,-0.023518294,0.03008509,0.0073303776,0.31109262,-0.036952537,-0.13260812,-9.50625,-1.5562501,-33.16875
1763129377437,0.084346995,5.9138613,7.719246,-0.023518294,0.03008509,0.0073303776,0.31091985,-0.036681592,-0.1324469,-9.50625,-1.5562501,-33.16875
1763129377450,0.084346995,5.9138613,7.719246,-0.007177661,0.00320704,-0.010537418,0.31091985,-0.036681592,-0.1324469,-9.50625,-1.5562501,-33.16875
1763129377451,-0.111864455,5.7870417,7.8071823,-0.007177661,0.00320704,-0.010537418,0.31091985,-0.036681592,-0.1324469,-9.50625,-1.5562501,-33.16875
1763129377457,-0.111864455,5.7870417,7.8071823,-0.007177661,0.00320704,-0.010537418,0.31089053,-0.036664817,-0.13252822,-9.50625,-1.5562501,-33.16875
1763129377457,-0.111864455,5.7870417,7.8071823,-0.007177661,0.00320704,-0.010537418,0.31089053,-0.036664817,-0.13252822,-9.46875,2.0062501,-31.987501
1763129377471,-0.111864455,5.7870417,7.8071823,0.0050396346,0.006872229,-0.00320704,0.31089053,-0.036664817,-0.13252822,-9.46875,2.0062501,-31.987501
1763129377472,-0.07836494,5.820541,7.7461653,0.0050396346,0.006872229,-0.00320704,0.31089053,-0.036664817,-0.13252822,-9.46875,2.0062501,-31.987501
1763129377477,-0.07836494,5.820541,7.7461653,0.0050396346,0.006872229,-0.00320704,0.31094837,-0.03663544,-0.13264504,-9.46875,2.0062501,-31.987501
1763129377477,-0.07836494,5.820541,7.7461653,0.0050396346,0.006872229,-0.00320704,0.31094837,-0.03663544,-0.13264504,-17.587502,-4.33125,-25.143751
1763129377493,-0.07836494,5.820541,7.7461653,-0.01527162,0.0048869182,-0.0024434591,0.31094837,-0.03663544,-0.13264504,-17.587502,-4.33125,-25.143751
1763129377494,-0.06999006,5.8564334,7.773084,-0.01527162,0.0048869182,-0.0024434591,0.31094837,-0.03663544,-0.13264504,-17.587502,-4.33125,-25.143751
1763129377498,-0.06999006,5.8564334,7.773084,-0.01527162,0.0048869182,-0.0024434591,0.31082314,-0.036566656,-0.13263415,-17.587502,-4.33125,-25.143751
1763129377499,-0.06999006,5.8564334,7.773084,-0.01527162,0.0048869182,-0.0024434591,0.31082314,-0.036566656,-0.13263415,-15.993751,-5.26875,-28.35
1763129377514,-0.06999006,5.8564334,7.773084,0.005497783,-0.0013744457,-0.015424335,0.31082314,-0.036566656,-0.13263415,-15.993751,-5.26875,-28.35
1763129377515,-0.08315059,5.782256,7.8053875,0.005497783,-0.0013744457,-0.015424335,0.31082314,-0.036566656,-0.13263415,-15.993751,-5.26875,-28.35
1763129377517,-0.08315059,5.782256,7.8053875,0.005497783,-0.0013744457,-0.015424335,0.31090173,-0.036549,-0.1327592,-15.993751,-5.26875,-28.35
1763129377518,-0.08315059,5.782256,7.8053875,0.005497783,-0.0013744457,-0.015424335,0.31090173,-0.036549,-0.1327592,-7.65,0.46875003,-33.46875
1763129377535,-0.08315059,5.782256,7.8053875,0.01802051,-0.0056504994,-0.032070402,0.31090173,-0.036549,-0.1327592,-7.65,0.46875003,-33.46875
1763129377536,-0.2009971,5.67757,7.690532,0.01802051,-0.0056504994,-0.032070402,0.31090173,-0.036549,-0.1327592,-7.65,0.46875003,-33.46875
1763129377538,-0.2009971,5.67757,7.690532,0.01802051,-0.0056504994,-0.032070402,0.31108367,-0.03653305,-0.13306805,-7.65,0.46875003,-33.46875
1763129377539,-0.2009971,5.67757,7.690532,0.01802051,-0.0056504994,-0.032070402,0.31108367,-0.03653305,-0.13306805,-7.9125004,-0.22500001,-33.975002
1763129377555,-0.2009971,5.67757,7.690532,0.0018325944,-0.010537418,-0.012064579,0.31108367,-0.03653305,-0.13306805,-7.9125004,-0.22500001,-33.975002
1763129377556,-0.2739782,5.6297135,7.64447,0.0018325944,-0.010537418,-0.012064579,0.31108367,-0.03653305,-0.13306805,-7.9125004,-0.22500001,-33.975002
1763129377558,-0.2739782,5.6297135,7.64447,0.0018325944,-0.010537418,-0.012064579,0.31108367,-0.03653305,-0.13306805,-7.0312505,0.76875,-35.49375
1763129377562,-0.2739782,5.6297135,7.64447,0.0018325944,-0.010537418,-0.012064579,0.3110907,-0.036589347,-0.13324395,-7.0312505,0.76875,-35.49375
1763129377579,-0.2739782,5.6297135,7.64447,-0.02535089,-0.011453714,4.581486E-4,0.3110907,-0.036589347,-0.13324395,-7.0312505,0.76875,-35.49375
1763129377580,-0.2739782,5.6297135,7.64447,-0.02535089,-0.011453714,4.581486E-4,0.3110907,-0.036589347,-0.13324395,-6.99375,1.9125,-33.956253
1763129377581,-0.19441684,5.6931233,7.7258263,-0.02535089,-0.011453714,4.581486E-4,0.3110907,-0.036589347,-0.13324395,-6.99375,1.9125,-33.956253
1763129377583,-0.19441684,5.6931233,7.7258263,-0.02535089,-0.011453714,4.581486E-4,0.31082425,-0.036646277,-0.13333674,-6.99375,1.9125,-33.956253
1763129377598,-0.19441684,5.6931233,7.7258263,-0.02535089,-0.011453714,4.581486E-4,0.31082425,-0.036646277,-0.13333674,-7.8187504,-2.30625,-35.0625
1763129377599,-0.19441684,5.6931233,7.7258263,-0.02535089,-0.011453714,4.581486E-4,0.310486,-0.036598414,-0.13339877,-7.8187504,-2.30625,-35.0625
1763129377600,-0.19441684,5.6931233,7.7258263,-0.03405571,-0.0016798781,-0.002290743,0.310486,-0.036598414,-0.13339877,-7.8187504,-2.30625,-35.0625
1763129377601,-0.20937198,5.662615,7.8520474,-0.03405571,-0.0016798781,-0.002290743,0.310486,-0.036598414,-0.13339877,-7.8187504,-2.30625,-35.0625
1763129377617,-0.20937198,5.662615,7.8520474,-0.03405571,-0.0016798781,-0.002290743,0.310486,-0.036598414,-0.13339877,-6.24375,1.2750001,-34.93125
1763129377621,-0.20937198,5.662615,7.8520474,-0.027947064,0.0051923506,0.013897174,0.310486,-0.036598414,-0.13339877,-6.24375,1.2750001,-34.93125
1763129377622,-0.276371,5.6650076,7.975876,-0.027947064,0.0051923506,0.013897174,0.310486,-0.036598414,-0.13339877,-6.24375,1.2750001,-34.93125
1763129377638,-0.276371,5.6650076,7.975876,-0.027947064,0.0051923506,0.013897174,0.310486,-0.036598414,-0.13339877,-7.2937503,-0.09375,-34.125
1763129377641,-0.276371,5.6650076,7.975876,-0.006261364,0.019547673,0.033902995,0.310486,-0.036598414,-0.13339877,-7.2937503,-0.09375,-34.125
1763129377642,-0.276371,5.6650076,7.975876,-0.006261364,0.019547673,0.033902995,0.3100575,-0.036469873,-0.13348594,-7.2937503,-0.09375,-34.125
1763129377643,-0.276371,5.6650076,7.975876,-0.006261364,0.019547673,0.033902995,0.30975744,-0.036224313,-0.13350491,-7.2937503,-0.09375,-34.125
1763129377643,-0.14356937,5.7655063,8.019546,-0.006261364,0.019547673,0.033902995,0.30975744,-0.036224313,-0.13350491,-7.2937503,-0.09375,-34.125
1763129377658,-0.14356937,5.7655063,8.019546,-0.006261364,0.019547673,0.033902995,0.30975744,-0.036224313,-0.13350491,-6.8437505,0.975,-33.825
1763129377661,-0.14356937,5.7655063,8.019546,0.0058032153,0.03573559,0.022907428,0.30975744,-0.036224313,-0.13350491,-6.8437505,0.975,-33.825
1763129377662,-0.14356937,5.7655063,8.019546,0.0058032153,0.03573559,0.022907428,0.30967757,-0.03595169,-0.13321595,-6.8437505,0.975,-33.825
1763129377663,-0.046660043,5.849255,7.926225,0.0058032153,0.03573559,0.022907428,0.30967757,-0.03595169,-0.13321595,-6.8437505,0.975,-33.825
1763129377679,-0.046660043,5.849255,7.926225,0.0058032153,0.03573559,0.022907428,0.30967757,-0.03595169,-0.13321595,-5.3250003,1.1625,-35.081253
1763129377682,-0.046660043,5.849255,7.926225,0.012370012,0.028099779,0.013133593,0.30967757,-0.03595169,-0.13321595,-5.3250003,1.1625,-35.081253
1763129377683,-0.046660043,5.849255,7.926225,0.012370012,0.028099779,0.013133593,0.309843,-0.035841268,-0.13274685,-5.3250003,1.1625,-35.081253
1763129377684,-0.12143575,5.814559,7.834101,0.012370012,0.028099779,0.013133593,0.309843,-0.035841268,-0.13274685,-5.3250003,1.1625,-35.081253
1763129377697,-0.12143575,5.814559,7.834101,0.012370012,0.028099779,0.013133593,0.309843,-0.035841268,-0.13274685,-7.275,0.5625,-34.59375
1763129377703,-0.12143575,5.814559,7.834101,-0.011300999,0.020005822,0.019547673,0.309843,-0.035841268,-0.13274685,-7.275,0.5625,-34.59375
1763129377704,-0.12143575,5.814559,7.834101,-0.011300999,0.020005822,0.019547673,0.3098192,-0.035718143,-0.13241312,-7.275,0.5625,-34.59375
1763129377708,-0.096909314,5.800202,7.713264,-0.011300999,0.020005822,0.019547673,0.3098192,-0.035718143,-0.13241312,-7.275,0.5625,-34.59375
1763129377717,-0.096909314,5.800202,7.713264,-0.011300999,0.020005822,0.019547673,0.3098192,-0.035718143,-0.13241312,-6.20625,0.975,-33.487503
1763129377724,0.08793623,5.913263,7.8293157,-0.011300999,0.020005822,0.019547673,0.3098192,-0.035718143,-0.13241312,-6.20625,0.975,-33.487503
1763129377725,0.08793623,5.913263,7.8293157,-0.011300999,0.020005822,0.019547673,0.30950174,-0.035617806,-0.13197774,-6.20625,0.975,-33.487503
1763129377726,0.08793623,5.913263,7.8293157,-0.05146536,0.016187917,0.023365578,0.30950174,-0.035617806,-0.13197774,-6.20625,0.975,-33.487503
1763129377738,0.08793623,5.913263,7.8293157,-0.05146536,0.016187917,0.023365578,0.30950174,-0.035617806,-0.13197774,-6.95625,1.7625,-34.068752
1763129377745,0.16091733,5.986842,8.065607,-0.05146536,0.016187917,0.023365578,0.30950174,-0.035617806,-0.13197774,-6.95625,1.7625,-34.068752
1763129377746,0.16091733,5.986842,8.065607,-0.037568185,0.00763581,-0.0048869182,0.30950174,-0.035617806,-0.13197774,-6.95625,1.7625,-34.068752
1763129377758,0.16091733,5.986842,8.065607,-0.037568185,0.00763581,-0.0048869182,0.3093352,-0.035725582,-0.13140221,-6.95625,1.7625,-34.068752
1763129377759,0.16091733,5.986842,8.065607,-0.037568185,0.00763581,-0.0048869182,0.3093352,-0.035725582,-0.13140221,-7.0687504,0.112500004,-35.475002
1763129377766,0.16091733,5.986842,8.065607,0.025809037,0.0019853106,-0.04703659,0.3093352,-0.035725582,-0.13140221,-7.0687504,0.112500004,-35.475002
1763129377767,-0.025722843,5.9138613,8.092526,0.025809037,0.0019853106,-0.04703659,0.3093352,-0.035725582,-0.13140221,-7.0687504,0.112500004,-35.475002
1763129377778,-0.025722843,5.9138613,8.092526,0.025809037,0.0019853106,-0.04703659,0.30964264,-0.035911437,-0.13111958,-7.0687504,0.112500004,-35.475002
1763129377779,-0.025722843,5.9138613,8.092526,0.025809037,0.0019853106,-0.04703659,0.30964264,-0.035911437,-0.13111958,-8.1,-0.6,-34.6875
1763129377787,-0.025722843,5.9138613,8.092526,0.020922119,0.03619374,-0.046425723,0.30964264,-0.035911437,-0.13111958,-8.1,-0.6,-34.6875
1763129377787,-0.19920248,5.768497,7.8687973,0.020922119,0.03619374,-0.046425723,0.30964264,-0.035911437,-0.13111958,-8.1,-0.6,-34.6875
1763129377797,-0.19920248,5.768497,7.8687973,0.020922119,0.03619374,-0.046425723,0.30964264,-0.035911437,-0.13111958,-6.9,1.1437501,-32.2125
1763129377798,-0.19920248,5.768497,7.8687973,0.020922119,0.03619374,-0.046425723,0.3098455,-0.03555672,-0.13119231,-6.9,1.1437501,-32.2125
1763129377807,-0.19920248,5.768497,7.8687973,-0.008704823,0.03161225,-0.0140498895,0.3098455,-0.03555672,-0.13119231,-6.9,1.1437501,-32.2125
1763129377808,-0.18843478,5.782854,7.8424764,-0.008704823,0.03161225,-0.0140498895,0.3098455,-0.03555672,-0.13119231,-6.9,1.1437501,-32.2125
1763129377817,-0.18843478,5.782854,7.8424764,-0.008704823,0.03161225,-0.0140498895,0.30979404,-0.035133265,-0.13135704,-6.9,1.1437501,-32.2125
1763129377818,-0.18843478,5.782854,7.8424764,-0.008704823,0.03161225,-0.0140498895,0.30979404,-0.035133265,-0.13135704,-7.5375004,1.4625001,-35.0625
1763129377829,-0.18843478,5.782854,7.8424764,0.01970039,0.00962112,-0.020616686,0.30979404,-0.035133265,-0.13135704,-7.5375004,1.4625001,-35.0625
1763129377830,-0.0634098,5.779265,7.945368,0.01970039,0.00962112,-0.020616686,0.30979404,-0.035133265,-0.13135704,-7.5375004,1.4625001,-35.0625
1763129377838,-0.0634098,5.779265,7.945368,0.01970039,0.00962112,-0.020616686,0.31003025,-0.034962673,-0.1315978,-7.5375004,1.4625001,-35.0625
1763129377839,-0.0634098,5.779265,7.945368,0.01970039,0.00962112,-0.020616686,0.31003025,-0.034962673,-0.1315978,-6.9187503,-0.01875,-35.550003
1763129377850,-0.0634098,5.779265,7.945368,0.060475614,0.007788526,-0.045814857,0.31003025,-0.034962673,-0.1315978,-6.9187503,-0.01875,-35.550003
1763129377851,-0.15194423,5.723632,7.87119,0.060475614,0.007788526,-0.045814857,0.31003025,-0.034962673,-0.1315978,-6.9187503,-0.01875,-35.550003
1763129377857,-0.15194423,5.723632,7.87119,0.060475614,0.007788526,-0.045814857,0.3105311,-0.03491848,-0.13181472,-6.9187503,-0.01875,-35.550003
1763129377858,-0.15194423,5.723632,7.87119,0.060475614,0.007788526,-0.045814857,0.3105311,-0.03491848,-0.13181472,-7.70625,0.13125001,-35.5125
1763129377871,-0.15194423,5.723632,7.87119,0.06811142,0.015424335,-0.054061532,0.3105311,-0.03491848,-0.13181472,-7.70625,0.13125001,-35.5125
1763129377872,-0.30149564,5.6584272,7.664809,0.06811142,0.015424335,-0.054061532,0.3105311,-0.03491848,-0.13181472,-7.70625,0.13125001,-35.5125
1763129377879,-0.30149564,5.6584272,7.664809,0.06811142,0.015424335,-0.054061532,0.31111273,-0.034694593,-0.13228647,-7.70625,0.13125001,-35.5125
1763129377880,-0.30149564,5.6584272,7.664809,0.06811142,0.015424335,-0.054061532,0.31111273,-0.034694593,-0.13228647,-6.5437503,1.66875,-36.3375
1763129377891,-0.30149564,5.6584272,7.664809,0.014813471,0.027641632,-0.039095346,0.31111273,-0.034694593,-0.13228647,-6.5437503,1.66875,-36.3375
1763129377892,-0.3505485,5.6004014,7.5499535,0.014813471,0.027641632,-0.039095346,0.31111273,-0.034694593,-0.13228647,-6.5437503,1.66875,-36.3375
1763129377897,-0.3505485,5.6004014,7.5499535,0.014813471,0.027641632,-0.039095346,0.31131667,-0.03417994,-0.13287875,-6.5437503,1.66875,-36.3375
1763129377899,-0.3505485,5.6004014,7.5499535,0.014813471,0.027641632,-0.039095346,0.31131667,-0.03417994,-0.13287875,-8.6625,-1.0500001,-34.875
1763129377913,-0.3505485,5.6004014,7.5499535,-0.024587307,0.022449281,-0.01527162,0.31131667,-0.03417994,-0.13287875,-8.6625,-1.0500001,-34.875
1763129377914,-0.35593235,5.63091,7.7240314,-0.024587307,0.022449281,-0.01527162,0.31131667,-0.03417994,-0.13287875,-8.6625,-1.0500001,-34.875
1763129377918,-0.35593235,5.63091,7.7240314,-0.024587307,0.022449281,-0.01527162,0.3111663,-0.033697613,-0.13334513,-8.6625,-1.0500001,-34.875
1763129377919,-0.35593235,5.63091,7.7240314,-0.024587307,0.022449281,-0.01527162,0.3111663,-0.033697613,-0.13334513,-7.3875003,-1.0875001,-34.95
1763129377934,-0.35593235,5.63091,7.7240314,-0.0050396346,0.011759147,-6.108648E-4,0.3111663,-0.033697613,-0.13334513,-7.3875003,-1.0875001,-34.95
1763129377936,-0.34157544,5.6297135,7.8311105,-0.0050396346,0.011759147,-6.108648E-4,0.3111663,-0.033697613,-0.13334513,-7.3875003,-1.0875001,-34.95
1763129377939,-0.34157544,5.6297135,7.8311105,-0.0050396346,0.011759147,-6.108648E-4,0.31105998,-0.033397168,-0.13372985,-7.3875003,-1.0875001,-34.95
1763129377941,-0.34157544,5.6297135,7.8311105,-0.0050396346,0.011759147,-6.108648E-4,0.31105998,-0.033397168,-0.13372985,-6.6000004,1.8375001,-33.525
1763129377954,-0.34157544,5.6297135,7.8311105,0.029932374,0.011453714,0.0073303776,0.31105998,-0.033397168,-0.13372985,-6.6000004,1.8375001,-33.525
1763129377955,-0.19980069,5.7696934,7.905886,0.029932374,0.011453714,0.0073303776,0.31105998,-0.033397168,-0.13372985,-6.6000004,1.8375001,-33.525
1763129377957,-0.19980069,5.7696934,7.905886,0.029932374,0.011453714,0.0073303776,0.31118008,-0.03319338,-0.1340149,-6.6000004,1.8375001,-33.525
1763129377958,-0.19980069,5.7696934,7.905886,0.029932374,0.011453714,0.0073303776,0.31118008,-0.03319338,-0.1340149,-5.8125,0.90000004,-33.80625
1763129377976,-0.19980069,5.7696934,7.905886,0.016493348,0.05177079,-0.01282816,0.31118008,-0.03319338,-0.1340149,-5.8125,0.90000004,-33.80625
1763129377977,-0.19501504,5.773283,7.706085,0.016493348,0.05177079,-0.01282816,0.31118008,-0.03319338,-0.1340149,-5.8125,0.90000004,-33.80625
1763129377978,-0.19501504,5.773283,7.706085,0.016493348,0.05177079,-0.01282816,0.31131867,-0.032676194,-0.13396603,-5.8125,0.90000004,-33.80625
1763129377980,-0.19501504,5.773283,7.706085,0.016493348,0.05177079,-0.01282816,0.31131867,-0.032676194,-0.13396603,-6.9187503,1.5937501,-34.912502
1763129377998,-0.19501504,5.773283,7.706085,0.016493348,0.05177079,-0.01282816,0.31136194,-0.032339867,-0.13375619,-6.9187503,1.5937501,-34.912502
1763129377999,-0.19501504,5.773283,7.706085,-0.011148282,0.035430156,9.162972E-4,0.31136194,-0.032339867,-0.13375619,-6.9187503,1.5937501,-34.912502
1763129378000,-0.19501504,5.773283,7.706085,-0.011148282,0.035430156,9.162972E-4,0.31136194,-0.032339867,-0.13375619,-8.700001,-1.03125,-32.025
1763129378001,-0.31465617,5.74756,7.648658,-0.011148282,0.035430156,9.162972E-4,0.31136194,-0.032339867,-0.13375619,-8.700001,-1.03125,-32.025
1763129378021,-0.31465617,5.74756,7.648658,-0.011148282,0.035430156,9.162972E-4,0.31152704,-0.032293633,-0.13377307,-8.700001,-1.03125,-32.025
1763129378022,-0.31465617,5.74756,7.648658,0.0030543238,4.581486E-4,0.017104214,0.31152704,-0.032293633,-0.13377307,-8.700001,-1.03125,-32.025
1763129378024,-0.23090738,5.7314086,7.7353973,0.0030543238,4.581486E-4,0.017104214,0.31152704,-0.032293633,-0.13377307,-8.700001,-1.03125,-32.025
1763129378025,-0.23090738,5.7314086,7.7353973,0.0030543238,4.581486E-4,0.017104214,0.31152704,-0.032293633,-0.13377307,-7.70625,-0.52500004,-36.412502
1763129378037,-0.23090738,5.7314086,7.7353973,0.0030543238,4.581486E-4,0.017104214,0.31152704,-0.032293633,-0.13377307,-7.4062505,0.675,-35.86875
1763129378040,-0.23090738,5.7314086,7.7353973,0.011606431,-0.0065667965,0.02046397,0.31152704,-0.032293633,-0.13377307,-7.4062505,0.675,-35.86875
1763129378041,-0.23090738,5.7314086,7.7353973,0.011606431,-0.0065667965,0.02046397,0.31163815,-0.032425147,-0.13362227,-7.4062505,0.675,-35.86875
1763129378042,-0.15972091,5.788836,7.749156,0.011606431,-0.0065667965,0.02046397,0.31163815,-0.032425147,-0.13362227,-7.4062505,0.675,-35.86875
1763129378057,-0.15972091,5.788836,7.749156,0.011606431,-0.0065667965,0.02046397,0.31163815,-0.032425147,-0.13362227,-7.18125,1.5375,-34.518753
1763129378060,-0.15972091,5.788836,7.749156,0.011606431,-0.0065667965,0.02046397,0.31167167,-0.032681767,-0.13341129,-7.18125,1.5375,-34.518753
1763129378061,-0.15972091,5.788836,7.749156,-3.054324E-4,-0.016340632,0.012217295,0.31167167,-0.032681767,-0.13341129,-7.18125,1.5375,-34.518753
1763129378062,-0.09930214,5.8911295,7.7946196,-3.054324E-4,-0.016340632,0.012217295,0.31167167,-0.032681767,-0.13341129,-7.18125,1.5375,-34.518753
1763129378079,-0.09930214,5.8911295,7.7946196,-3.054324E-4,-0.016340632,0.012217295,0.31167167,-0.032681767,-0.13341129,-5.90625,2.4750001,-35.90625
1763129378082,-0.09930214,5.8911295,7.7946196,-3.054324E-4,-0.016340632,0.012217295,0.31167004,-0.03276205,-0.13318534,-5.90625,2.4750001,-35.90625
1763129378083,-0.09930214,5.8911295,7.7946196,-0.01527162,-7.6358096E-4,-0.008552107,0.31167004,-0.03276205,-0.13318534,-5.90625,2.4750001,-35.90625
1763129378084,-0.06819545,5.892326,7.891529,-0.01527162,-7.6358096E-4,-0.008552107,0.31167004,-0.03276205,-0.13318534,-5.90625,2.4750001,-35.90625
1763129378098,-0.06819545,5.892326,7.891529,-0.01527162,-7.6358096E-4,-0.008552107,0.31167004,-0.03276205,-0.13318534,-5.925,1.0125,-35.23125
1763129378103,-0.06819545,5.892326,7.891529,-0.01527162,-7.6358096E-4,-0.008552107,0.31153408,-0.03264475,-0.13302517,-5.925,1.0125,-35.23125
1763129378104,-0.06819545,5.892326,7.891529,-0.022143848,0.016187917,-0.025503604,0.31153408,-0.03264475,-0.13302517,-5.925,1.0125,-35.23125
1763129378106,-0.21355942,5.8127646,7.8981094,-0.022143848,0.016187917,-0.025503604,0.31153408,-0.03264475,-0.13302517,-5.925,1.0125,-35.23125
1763129378117,-0.21355942,5.8127646,7.8981094,-0.022143848,0.016187917,-0.025503604,0.31153408,-0.03264475,-0.13302517,-7.0687504,0.112500004,-34.425003
1763129378123,-0.21355942,5.8127646,7.8981094,-0.022143848,0.016187917,-0.025503604,0.31146082,-0.032622665,-0.13319853,-7.0687504,0.112500004,-34.425003
1763129378124,-0.21355942,5.8127646,7.8981094,-0.003817905,4.581486E-4,-0.009315688,0.31146082,-0.032622665,-0.13319853,-7.0687504,0.112500004,-34.425003
1763129378125,-0.30329028,5.7463636,7.912466,-0.003817905,4.581486E-4,-0.009315688,0.31146082,-0.032622665,-0.13319853,-7.0687504,0.112500004,-34.425003
1763129378137,-0.30329028,5.7463636,7.912466,-0.003817905,4.581486E-4,-0.009315688,0.31146082,-0.032622665,-0.13319853,-6.01875,1.48125,-35.23125
1763129378145,-0.1692922,5.7583275,7.902895,-0.003817905,4.581486E-4,-0.009315688,0.31146082,-0.032622665,-0.13319853,-6.01875,1.48125,-35.23125
1763129378149,-0.1692922,5.7583275,7.902895,0.0140498895,0.0061086477,9.162972E-4,0.31146082,-0.032622665,-0.13319853,-6.01875,1.48125,-35.23125
1763129378150,-0.1692922,5.7583275,7.902895,0.0140498895,0.0061086477,9.162972E-4,0.31147772,-0.032509614,-0.13349411,-6.01875,1.48125,-35.23125
1763129378158,-0.1692922,5.7583275,7.902895,0.0140498895,0.0061086477,9.162972E-4,0.31147772,-0.032509614,-0.13349411,-7.425,-0.91875005,-33.9375
1763129378164,-0.1692922,5.7583275,7.902895,0.011606431,0.02489274,-0.0061086477,0.31147772,-0.032509614,-0.13349411,-7.425,-0.91875005,-33.9375
1763129378166,-0.20578274,5.7667027,7.8053875,0.011606431,0.02489274,-0.0061086477,0.31147772,-0.032509614,-0.13349411,-7.425,-0.91875005,-33.9375
1763129378178,-0.20578274,5.7667027,7.8053875,0.011606431,0.02489274,-0.0061086477,0.3114998,-0.03235563,-0.13353808,-7.425,-0.91875005,-33.9375
1763129378179,-0.20578274,5.7667027,7.8053875,0.011606431,0.02489274,-0.0061086477,0.3114998,-0.03235563,-0.13353808,-6.6562505,0.0375,-35.49375
1763129378187,-0.20578274,5.7667027,7.8053875,0.014355322,0.010079269,-0.0019853106,0.3114998,-0.03235563,-0.13353808,-6.6562505,0.0375,-35.49375
1763129378188,-0.25722843,5.782256,7.7682986,0.014355322,0.010079269,-0.0019853106,0.3114998,-0.03235563,-0.13353808,-6.6562505,0.0375,-35.49375
1763129378197,-0.25722843,5.782256,7.7682986,0.014355322,0.010079269,-0.0019853106,0.31164137,-0.03229021,-0.13351601,-6.6562505,0.0375,-35.49375
1763129378198,-0.25722843,5.782256,7.7682986,0.014355322,0.010079269,-0.0019853106,0.31164137,-0.03229021,-0.13351601,-7.2562504,0.54375005,-35.34375
1763129378206,-0.25722843,5.782256,7.7682986,0.021380268,-7.6358096E-4,-0.0059559317,0.31164137,-0.03229021,-0.13351601,-7.2562504,0.54375005,-35.34375
1763129378207,-0.21535404,5.7744794,7.7796645,0.021380268,-7.6358096E-4,-0.0059559317,0.31164137,-0.03229021,-0.13351601,-7.2562504,0.54375005,-35.34375
1763129378217,-0.21535404,5.7744794,7.7796645,0.021380268,-7.6358096E-4,-0.0059559317,0.31189287,-0.032314595,-0.13378255,-7.2562504,0.54375005,-35.34375
1763129378218,-0.21535404,5.7744794,7.7796645,0.021380268,-7.6358096E-4,-0.0059559317,0.31189287,-0.032314595,-0.13378255,-8.1,-0.6,-34.987503
1763129378229,-0.21535404,5.7744794,7.7796645,0.0070249448,0.012522728,-0.00962112,0.31189287,-0.032314595,-0.13378255,-8.1,-0.6,-34.987503
1763129378230,-0.23569304,5.7583275,7.774879,0.0070249448,0.012522728,-0.00962112,0.31189287,-0.032314595,-0.13378255,-8.1,-0.6,-34.987503
1763129378237,-0.23569304,5.7583275,7.774879,0.0070249448,0.012522728,-0.00962112,0.31199145,-0.032207668,-0.1338999,-8.1,-0.6,-34.987503
1763129378238,-0.23569304,5.7583275,7.774879,0.0070249448,0.012522728,-0.00962112,0.31199145,-0.032207668,-0.1338999,-5.30625,1.1625,-35.831253
1763129378248,-0.23569304,5.7583275,7.774879,-0.0013744457,0.03252855,-0.0051923506,0.31199145,-0.032207668,-0.1338999,-5.30625,1.1625,-35.831253
1763129378249,-0.23090738,5.7541404,7.8257265,-0.0013744457,0.03252855,-0.0051923506,0.31199145,-0.032207668,-0.1338999,-5.30625,1.1625,-35.831253
1763129378258,-0.23090738,5.7541404,7.8257265,-0.0013744457,0.03252855,-0.0051923506,0.31202194,-0.03187396,-0.13390228,-5.30625,1.1625,-35.831253
1763129378259,-0.23090738,5.7541404,7.8257265,-0.0013744457,0.03252855,-0.0051923506,0.31202194,-0.03187396,-0.13390228,-6.61875,1.2,-34.256252
1763129378270,-0.23090738,5.7541404,7.8257265,0.013591741,0.03329213,-0.003970621,0.31202194,-0.03187396,-0.13390228,-6.61875,1.2,-34.256252
1763129378271,-0.27756742,5.749355,7.853244,0.013591741,0.03329213,-0.003970621,0.31202194,-0.03187396,-0.13390228,-6.61875,1.2,-34.256252
1763129378278,-0.27756742,5.749355,7.853244,0.013591741,0.03329213,-0.003970621,0.3121402,-0.031560525,-0.1338559,-6.61875,1.2,-34.256252
1763129378279,-0.27756742,5.749355,7.853244,0.013591741,0.03329213,-0.003970621,0.3121402,-0.031560525,-0.1338559,-6.20625,1.125,-35.175003
1763129378291,-0.27756742,5.749355,7.853244,0.026572619,0.014966187,0.0016798781,0.3121402,-0.031560525,-0.1338559,-6.20625,1.125,-35.175003
1763129378292,-0.2757728,5.8037915,7.7700934,0.026572619,0.014966187,0.0016798781,0.3121402,-0.031560525,-0.1338559,-6.20625,1.125,-35.175003
1763129378297,-0.2757728,5.8037915,7.7700934,0.026572619,0.014966187,0.0016798781,0.31232452,-0.03142793,-0.13395688,-6.20625,1.125,-35.175003
1763129378298,-0.2757728,5.8037915,7.7700934,0.026572619,0.014966187,0.0016798781,0.31232452,-0.03142793,-0.13395688,-6.4875,0.41250002,-34.48125
1763129378312,-0.2757728,5.8037915,7.7700934,0.014508039,0.0048869182,0.006261364,0.31232452,-0.03142793,-0.13395688,-6.4875,0.41250002,-34.48125
1763129378314,-0.20877378,5.818148,7.7383885,0.014508039,0.0048869182,0.006261364,0.31232452,-0.03142793,-0.13395688,-6.4875,0.41250002,-34.48125
1763129378318,-0.20877378,5.818148,7.7383885,0.014508039,0.0048869182,0.006261364,0.31252196,-0.031436447,-0.13409863,-6.4875,0.41250002,-34.48125
1763129378319,-0.20877378,5.818148,7.7383885,0.014508039,0.0048869182,0.006261364,0.31252196,-0.031436447,-0.13409863,-6.8250003,0.975,-34.575
1763129378332,-0.20877378,5.818148,7.7383885,-0.003970621,0.004123337,-0.0030543238,0.31252196,-0.031436447,-0.13409863,-6.8250003,0.975,-34.575
1763129378333,-0.14476576,5.8540406,7.856235,-0.003970621,0.004123337,-0.0030543238,0.31252196,-0.031436447,-0.13409863,-6.8250003,0.975,-34.575
1763129378338,-0.14476576,5.8540406,7.856235,-0.003970621,0.004123337,-0.0030543238,0.3125789,-0.031445317,-0.13409664,-6.8250003,0.975,-34.575
1763129378339,-0.14476576,5.8540406,7.856235,-0.003970621,0.004123337,-0.0030543238,0.3125789,-0.031445317,-0.13409664,-6.4500003,0.26250002,-35.325
1763129378354,-0.14476576,5.8540406,7.856235,0.0015271619,0.00763581,-0.00763581,0.3125789,-0.031445317,-0.13409664,-6.4500003,0.26250002,-35.325
1763129378355,-0.24107689,5.81755,7.797013,0.0015271619,0.00763581,-0.00763581,0.3125789,-0.031445317,-0.13409664,-6.4500003,0.26250002,-35.325
1763129378358,-0.24107689,5.81755,7.797013,0.0015271619,0.00763581,-0.00763581,0.3125789,-0.031445317,-0.13409664,-4.59375,2.2875001,-35.625
1763129378359,-0.24107689,5.81755,7.797013,0.0015271619,0.00763581,-0.00763581,0.31261563,-0.031474207,-0.13397737,-4.59375,2.2875001,-35.625
1763129378374,-0.24107689,5.81755,7.797013,0.014355322,-0.011911863,-3.054324E-4,0.31261563,-0.031474207,-0.13397737,-4.59375,2.2875001,-35.625
1763129378375,-0.16570297,5.8833528,7.878967,0.014355322,-0.011911863,-3.054324E-4,0.31261563,-0.031474207,-0.13397737,-4.59375,2.2875001,-35.625
1763129378378,-0.16570297,5.8833528,7.878967,0.014355322,-0.011911863,-3.054324E-4,0.3127689,-0.031628206,-0.13407186,-4.59375,2.2875001,-35.625
1763129378379,-0.16570297,5.8833528,7.878967,0.014355322,-0.011911863,-3.054324E-4,0.3127689,-0.031628206,-0.13407186,-5.3625,1.48125,-35.175003
1763129378395,-0.16570297,5.8833528,7.878967,0.03649917,-0.003817905,-0.023823727,0.3127689,-0.031628206,-0.13407186,-5.3625,1.48125,-35.175003
1763129378396,-0.12622139,5.8624153,7.9316087,0.03649917,-0.003817905,-0.023823727,0.3127689,-0.031628206,-0.13407186,-5.3625,1.48125,-35.175003
1763129378397,-0.12622139,5.8624153,7.9316087,0.03649917,-0.003817905,-0.023823727,0.31314334,-0.03171802,-0.13411729,-5.3625,1.48125,-35.175003
1763129378398,-0.12622139,5.8624153,7.9316087,0.03649917,-0.003817905,-0.023823727,0.31314334,-0.03171802,-0.13411729,-6.9375005,-0.0,-34.050003
1763129378418,-0.12622139,5.8624153,7.9316087,0.03649917,-0.003817905,-0.023823727,0.31363103,-0.031756263,-0.13418053,-6.9375005,-0.0,-34.050003
1763129378419,-0.12622139,5.8624153,7.9316087,0.057115857,0.0056504994,-0.03375028,0.31363103,-0.031756263,-0.13418053,-6.9375005,-0.0,-34.050003
1763129378420,-0.12622139,5.8624153,7.9316087,0.057115857,0.0056504994,-0.03375028,0.31363103,-0.031756263,-0.13418053,-7.5000005,1.1437501,-34.36875
1763129378421,-0.37507495,5.7206407,7.6797643,0.057115857,0.0056504994,-0.03375028,0.31363103,-0.031756263,-0.13418053,-7.5000005,1.1437501,-34.36875
1763129378438,-0.37507495,5.7206407,7.6797643,0.04092794,-0.03054324,-0.028710645,0.31363103,-0.031756263,-0.13418053,-7.5000005,1.1437501,-34.36875
1763129378439,-0.37507495,5.7206407,7.6797643,0.04092794,-0.03054324,-0.028710645,0.31399602,-0.03189737,-0.13495307,-7.5000005,1.1437501,-34.36875
1763129378440,-0.37507495,5.7206407,7.6797643,0.04092794,-0.03054324,-0.028710645,0.31399602,-0.03189737,-0.13495307,-8.175,-0.13125001,-34.66875
1763129378441,-0.613759,5.6153564,7.0396843,0.04092794,-0.03054324,-0.028710645,0.31399602,-0.03189737,-0.13495307,-8.175,-0.13125001,-34.66875
1763129378457,-0.613759,5.6153564,7.0396843,0.04092794,-0.03054324,-0.028710645,0.31399602,-0.03189737,-0.13495307,-7.7625003,-0.50625,-33.09375
1763129378459,-0.613759,5.6153564,7.0396843,-0.07223476,-0.066889696,0.05864302,0.31399602,-0.03189737,-0.13495307,-7.7625003,-0.50625,-33.09375
1763129378460,-0.28115666,5.709275,7.7001033,-0.07223476,-0.066889696,0.05864302,0.31399602,-0.03189737,-0.13495307,-7.7625003,-0.50625,-33.09375
1763129378461,-0.28115666,5.709275,7.7001033,-0.07223476,-0.066889696,0.05864302,0.31371984,-0.03224872,-0.1353867,-7.7625003,-0.50625,-33.09375
1763129378477,-0.28115666,5.709275,7.7001033,-0.07223476,-0.066889696,0.05864302,0.31371984,-0.03224872,-0.1353867,-7.74375,-0.50625,-33.84375
1763129378480,-0.28115666,5.709275,7.7001033,-0.11255184,-0.01802051,0.05131264,0.31371984,-0.03224872,-0.1353867,-7.74375,-0.50625,-33.84375
1763129378480,-0.28115666,5.709275,7.7001033,-0.11255184,-0.01802051,0.05131264,0.31255832,-0.032407783,-0.13520849,-7.74375,-0.50625,-33.84375
1763129378481,-0.12263216,5.8223357,8.122437,-0.11255184,-0.01802051,0.05131264,0.31255832,-0.032407783,-0.13520849,-7.74375,-0.50625,-33.84375
1763129378498,-0.12263216,5.8223357,8.122437,-0.11255184,-0.01802051,0.05131264,0.31255832,-0.032407783,-0.13520849,-7.5000005,1.1437501,-34.818752
1763129378500,-0.12263216,5.8223357,8.122437,-0.03894263,0.016340632,0.02932151,0.31255832,-0.032407783,-0.13520849,-7.5000005,1.1437501,-34.818752
1763129378501,-0.12263216,5.8223357,8.122437,-0.03894263,0.016340632,0.02932151,0.31190348,-0.032410603,-0.13476634,-7.5000005,1.1437501,-34.818752
1763129378502,-0.07537391,5.779265,8.124231,-0.03894263,0.016340632,0.02932151,0.31190348,-0.032410603,-0.13476634,-7.5000005,1.1437501,-34.818752
1763129378518,-0.07537391,5.779265,8.124231,-0.03894263,0.016340632,0.02932151,0.31190348,-0.032410603,-0.13476634,-8.26875,0.3375,-33.318752
1763129378523,-0.07537391,5.779265,8.124231,0.034819294,0.015424335,-0.019547673,0.31190348,-0.032410603,-0.13476634,-8.26875,0.3375,-33.318752
1763129378524,-0.07537391,5.779265,8.124231,0.034819294,0.015424335,-0.019547673,0.31192273,-0.032420393,-0.13471644,-8.26875,0.3375,-33.318752
1763129378526,-0.16271193,5.831907,7.7066836,0.034819294,0.015424335,-0.019547673,0.31192273,-0.032420393,-0.13471644,-8.26875,0.3375,-33.318752
1763129378547,-0.16271193,5.831907,7.7066836,0.034819294,0.015424335,-0.019547673,0.31192273,-0.032420393,-0.13471644,-7.2937503,0.056250002,-35.831253
1763129378547,-0.4325027,5.8061843,7.7240314,0.034819294,0.015424335,-0.019547673,0.31192273,-0.032420393,-0.13471644,-7.2937503,0.056250002,-35.831253
1763129378548,-0.4325027,5.8061843,7.7240314,0.034819294,0.015424335,-0.019547673,0.31232834,-0.03320028,-0.1351122,-7.2937503,0.056250002,-35.831253
1763129378549,-0.4325027,5.8061843,7.7240314,0.0368046,-0.07208204,-0.023823727,0.31232834,-0.03320028,-0.1351122,-7.2937503,0.056250002,-35.831253
