timestamp,accX,accY,accZ,gyroX,gyroY,gyroZ,rotX,rotY,rotZ,magX,magY,magZ
1763129434486,-2.8378878,8.933603,2.2875385,0.13377939,-0.72295845,0.053450666,0.56486446,0.14138678,-0.06370791,11.34375,-11.887501,-30.6
1763129434487,-2.9970105,8.76132,1.3890336,0.13377939,-0.72295845,0.053450666,0.56486446,0.14138678,-0.06370791,11.34375,-11.887501,-30.6
1763129434497,-2.9970105,8.76132,1.3890336,0.13377939,-0.72295845,0.053450666,0.56576324,0.134842,-0.06772156,11.34375,-11.887501,-30.6
1763129434498,-2.9970105,8.76132,1.3890336,0.13377939,-0.72295845,0.053450666,0.56576324,0.134842,-0.06772156,8.85,-12.450001,-29.062502
1763129434508,-2.9970105,8.76132,1.3890336,-0.035582874,-0.95859957,0.10109812,0.56576324,0.134842,-0.06772156,8.85,-12.450001,-29.062502
1763129434509,-2.8175488,8.837293,2.0183458,-0.035582874,-0.95859957,0.10109812,0.56576324,0.134842,-0.06772156,8.85,-12.450001,-29.062502
1763129434518,-2.8175488,8.837293,2.0183458,-0.035582874,-0.95859957,0.10109812,0.5652534,0.1261517,-0.07261082,8.85,-12.450001,-29.062502
1763129434518,-2.8175488,8.837293,2.0183458,-0.035582874,-0.95859957,0.10109812,0.5652534,0.1261517,-0.07261082,6.5437503,-14.887501,-27.281252
1763129434529,-2.8175488,8.837293,2.0183458,-0.25060728,-0.88712835,0.07956514,0.5652534,0.1261517,-0.07261082,6.5437503,-14.887501,-27.281252
1763129434530,-2.4197419,8.980862,2.9180472,-0.25060728,-0.88712835,0.07956514,0.5652534,0.1261517,-0.07261082,6.5437503,-14.887501,-27.281252
1763129434539,-2.4197419,8.980862,2.9180472,-0.25060728,-0.88712835,0.07956514,0.5652534,0.1261517,-0.07261082,12.056251,-10.762501,-30.525002
1763129434540,-2.4197419,8.980862,2.9180472,-0.25060728,-0.88712835,0.07956514,0.56277895,0.118336834,-0.07690831,12.056251,-10.762501,-30.525002
1763129434550,-2.4197419,8.980862,2.9180472,-0.3924806,-0.7843504,-0.011759147,0.56277895,0.118336834,-0.07690831,12.056251,-10.762501,-30.525002
1763129434551,-2.2175484,8.955139,3.0999017,-0.3924806,-0.7843504,-0.011759147,0.56277895,0.118336834,-0.07690831,12.056251,-10.762501,-30.525002
1763129434558,-2.2175484,8.955139,3.0999017,-0.3924806,-0.7843504,-0.011759147,0.5588642,0.112015694,-0.08103702,12.056251,-10.762501,-30.525002
1763129434560,-2.2175484,8.955139,3.0999017,-0.3924806,-0.7843504,-0.011759147,0.5588642,0.112015694,-0.08103702,11.475,-10.40625,-30.7875
1763129434571,-2.2175484,8.955139,3.0999017,-0.48365217,-0.80878496,-0.045203995,0.5588642,0.112015694,-0.08103702,11.475,-10.40625,-30.7875
1763129434572,-2.4388845,8.987442,3.1573296,-0.48365217,-0.80878496,-0.045203995,0.5588642,0.112015694,-0.08103702,11.475,-10.40625,-30.7875
1763129434577,-2.4388845,8.987442,3.1573296,-0.48365217,-0.80878496,-0.045203995,0.55404586,0.10574042,-0.08542161,11.475,-10.40625,-30.7875
1763129434578,-2.4388845,8.987442,3.1573296,-0.48365217,-0.80878496,-0.045203995,0.55404586,0.10574042,-0.08542161,9.5625,-10.51875,-28.7625
1763129434592,-2.4388845,8.987442,3.1573296,-0.5039635,-0.93783015,-0.04963276,0.55404586,0.10574042,-0.08542161,9.5625,-10.51875,-28.7625
1763129434593,-2.78046,8.749954,3.3146574,-0.5039635,-0.93783015,-0.04963276,0.55404586,0.10574042,-0.08542161,9.5625,-10.51875,-28.7625
1763129434597,-2.78046,8.749954,3.3146574,-0.5039635,-0.93783015,-0.04963276,0.5488986,0.098396875,-0.09065864,9.5625,-10.51875,-28.7625
1763129434597,-2.78046,8.749954,3.3146574,-0.5039635,-0.93783015,-0.04963276,0.5488986,0.098396875,-0.09065864,10.35,-9.712501,-31.462502
1763129434613,-2.78046,8.749954,3.3146574,-0.47510007,-1.2287545,-0.005497783,0.5488986,0.098396875,-0.09065864,10.35,-9.712501,-31.462502
1763129434613,-2.8827531,8.282157,3.1980073,-0.47510007,-1.2287545,-0.005497783,0.5488986,0.098396875,-0.09065864,10.35,-9.712501,-31.462502
1763129434618,-2.8827531,8.282157,3.1980073,-0.47510007,-1.2287545,-0.005497783,0.54367316,0.088255495,-0.09738676,10.35,-9.712501,-31.462502
1763129434619,-2.8827531,8.282157,3.1980073,-0.47510007,-1.2287545,-0.005497783,0.54367316,0.088255495,-0.09738676,7.55625,-9.88125,-30.581251
1763129434634,-2.8827531,8.282157,3.1980073,-0.53160506,-1.3790272,0.030695954,0.54367316,0.088255495,-0.09738676,7.55625,-9.88125,-30.581251
1763129434635,-2.7966115,8.398808,3.4540396,-0.53160506,-1.3790272,0.030695954,0.54367316,0.088255495,-0.09738676,7.55625,-9.88125,-30.581251
1763129434639,-2.7966115,8.398808,3.4540396,-0.53160506,-1.3790272,0.030695954,0.53773963,0.07666272,-0.10470968,7.55625,-9.88125,-30.581251
1763129434640,-2.7966115,8.398808,3.4540396,-0.53160506,-1.3790272,0.030695954,0.53773963,0.07666272,-0.10470968,8.3625,-10.668751,-32.550003
1763129434655,-2.7966115,8.398808,3.4540396,-0.65988666,-1.4466805,0.045662142,0.53773963,0.07666272,-0.10470968,8.3625,-10.668751,-32.550003
1763129434655,-2.5830522,8.474181,3.5605202,-0.65988666,-1.4466805,0.045662142,0.53773963,0.07666272,-0.10470968,8.3625,-10.668751,-32.550003
1763129434657,-2.5830522,8.474181,3.5605202,-0.65988666,-1.4466805,0.045662142,0.53048086,0.06452199,-0.11215077,8.3625,-10.668751,-32.550003
1763129434658,-2.5830522,8.474181,3.5605202,-0.65988666,-1.4466805,0.045662142,0.53048086,0.06452199,-0.11215077,6.3,-11.45625,-31.143751
1763129434676,-2.5830522,8.474181,3.5605202,-0.73899364,-1.091768,0.06108648,0.53048086,0.06452199,-0.11215077,6.3,-11.45625,-31.143751
1763129434678,-2.2097716,8.612965,4.8011985,-0.73899364,-1.091768,0.06108648,0.53048086,0.06452199,-0.11215077,6.3,-11.45625,-31.143751
1763129434678,-2.2097716,8.612965,4.8011985,-0.73899364,-1.091768,0.06108648,0.52285075,0.055498175,-0.11734412,6.3,-11.45625,-31.143751
1763129434679,-2.2097716,8.612965,4.8011985,-0.73899364,-1.091768,0.06108648,0.52285075,0.055498175,-0.11734412,1.85625,-12.637501,-29.41875
1763129434698,-2.2097716,8.612965,4.8011985,-0.73899364,-1.091768,0.06108648,0.5158511,0.048660386,-0.120421074,1.85625,-12.637501,-29.41875
1763129434699,-2.2097716,8.612965,4.8011985,-0.68019795,-0.8002329,0.10995566,0.5158511,0.048660386,-0.120421074,1.85625,-12.637501,-29.41875
1763129434700,-1.7024933,8.180463,4.833502,-0.68019795,-0.8002329,0.10995566,0.5158511,0.048660386,-0.120421074,1.85625,-12.637501,-29.41875
1763129434700,-1.7024933,8.180463,4.833502,-0.68019795,-0.8002329,0.10995566,0.5158511,0.048660386,-0.120421074,2.2125,-10.78125,-30.393751
1763129434718,-1.7024933,8.180463,4.833502,-0.5225948,-0.74296427,0.07788526,0.5158511,0.048660386,-0.120421074,2.2125,-10.78125,-30.393751
1763129434718,-1.7024933,8.180463,4.833502,-0.5225948,-0.74296427,0.07788526,0.5102249,0.042272735,-0.123417705,2.2125,-10.78125,-30.393751
1763129434719,-1.7024933,8.180463,4.833502,-0.5225948,-0.74296427,0.07788526,0.5102249,0.042272735,-0.123417705,3.9,-9.9375,-32.850002
1763129434719,-1.7066808,8.086544,5.355137,-0.5225948,-0.74296427,0.07788526,0.5102249,0.042272735,-0.123417705,3.9,-9.9375,-32.850002
1763129434738,-1.7066808,8.086544,5.355137,-0.5225948,-0.74296427,0.07788526,0.5102249,0.042272735,-0.123417705,3.7875001,-9.31875,-31.687502
1763129434739,-1.7066808,8.086544,5.355137,-0.33047783,-0.78603023,0.09224058,0.5102249,0.042272735,-0.123417705,3.7875001,-9.31875,-31.687502
1763129434740,-1.7066808,8.086544,5.355137,-0.33047783,-0.78603023,0.09224058,0.5061313,0.035166863,-0.12664706,3.7875001,-9.31875,-31.687502
1763129434740,-1.8317057,7.5553374,3.8638103,-0.33047783,-0.78603023,0.09224058,0.5061313,0.035166863,-0.12664706,3.7875001,-9.31875,-31.687502
1763129434757,-1.8317057,7.5553374,3.8638103,-0.33047783,-0.78603023,0.09224058,0.5061313,0.035166863,-0.12664706,5.3812504,-8.94375,-32.081253
1763129434759,-1.8317057,7.5553374,3.8638103,-0.3593412,-1.1533127,0.10766492,0.5061313,0.035166863,-0.12664706,5.3812504,-8.94375,-32.081253
1763129434760,-2.4245276,8.920443,5.246862,-0.3593412,-1.1533127,0.10766492,0.5061313,0.035166863,-0.12664706,5.3812504,-8.94375,-32.081253
1763129434761,-2.4245276,8.920443,5.246862,-0.3593412,-1.1533127,0.10766492,0.5014914,0.024783166,-0.13174905,5.3812504,-8.94375,-32.081253
1763129434778,-2.4245276,8.920443,5.246862,-0.3593412,-1.1533127,0.10766492,0.5014914,0.024783166,-0.13174905,1.3687501,-10.856251,-32.90625
1763129434781,-1.6336997,8.629715,4.995017,-0.3593412,-1.1533127,0.10766492,0.5014914,0.024783166,-0.13174905,1.3687501,-10.856251,-32.90625
1763129434783,-1.6336997,8.629715,4.995017,-0.3593412,-1.1533127,0.10766492,0.49714434,0.020045824,-0.13272628,1.3687501,-10.856251,-32.90625
1763129434784,-1.6336997,8.629715,4.995017,-0.41645706,-0.48579022,0.19181155,0.49714434,0.020045824,-0.13272628,1.3687501,-10.856251,-32.90625
1763129434798,-1.6336997,8.629715,4.995017,-0.41645706,-0.48579022,0.19181155,0.49714434,0.020045824,-0.13272628,3.0375001,-9.993751,-35.0625
1763129434801,-1.6336997,8.629715,4.995017,-0.46440995,-0.5395463,0.13164136,0.49714434,0.020045824,-0.13272628,3.0375001,-9.993751,-35.0625
1763129434802,-1.1312069,7.94118,4.8825545,-0.46440995,-0.5395463,0.13164136,0.49714434,0.020045824,-0.13272628,3.0375001,-9.993751,-35.0625
1763129434804,-1.1312069,7.94118,4.8825545,-0.46440995,-0.5395463,0.13164136,0.49228176,0.015157579,-0.13424812,3.0375001,-9.993751,-35.0625
1763129434819,-1.1312069,7.94118,4.8825545,-0.46440995,-0.5395463,0.13164136,0.49228176,0.015157579,-0.13424812,3.3187501,-9.431251,-33.61875
1763129434823,-1.1312069,7.94118,4.8825545,-0.41813695,-0.75304353,0.066431545,0.49228176,0.015157579,-0.13424812,3.3187501,-9.431251,-33.61875
1763129434824,-1.1312069,7.94118,4.8825545,-0.41813695,-0.75304353,0.066431545,0.4874491,0.008585067,-0.13735855,3.3187501,-9.431251,-33.61875
1763129434826,-1.5601203,8.63809,5.7152567,-0.41813695,-0.75304353,0.066431545,0.4874491,0.008585067,-0.13735855,3.3187501,-9.431251,-33.61875
1763129434837,-1.5601203,8.63809,5.7152567,-0.41813695,-0.75304353,0.066431545,0.4874491,0.008585067,-0.13735855,2.23125,-7.4437504,-34.162502
1763129434843,-1.5601203,8.63809,5.7152567,-0.23228133,-0.36407542,0.04444041,0.4874491,0.008585067,-0.13735855,2.23125,-7.4437504,-34.162502
1763129434845,-1.3609179,8.512466,5.745765,-0.23228133,-0.36407542,0.04444041,0.4874491,0.008585067,-0.13735855,2.23125,-7.4437504,-34.162502
1763129434846,-1.3609179,8.512466,5.745765,-0.23228133,-0.36407542,0.04444041,0.48477754,0.0053989734,-0.13883576,2.23125,-7.4437504,-34.162502
1763129434858,-1.3609179,8.512466,5.745765,-0.23228133,-0.36407542,0.04444041,0.48477754,0.0053989734,-0.13883576,2.2687502,-9.20625,-34.59375
1763129434865,-1.3609179,8.512466,5.745765,-0.23228133,-0.36407542,0.04444041,0.48371732,0.0023276242,-0.1405214,2.2687502,-9.20625,-34.59375
1763129434866,-1.3208381,7.940582,5.840282,-0.23228133,-0.36407542,0.04444041,0.48371732,0.0023276242,-0.1405214,2.2687502,-9.20625,-34.59375
1763129434867,-1.3208381,7.940582,5.840282,-0.054672398,-0.343306,0.005345067,0.48371732,0.0023276242,-0.1405214,2.2687502,-9.20625,-34.59375
1763129434878,-1.3208381,7.940582,5.840282,-0.054672398,-0.343306,0.005345067,0.48371732,0.0023276242,-0.1405214,1.5187501,-8.71875,-32.9625
1763129434885,-1.3208381,7.940582,5.840282,0.083688475,-0.20173809,0.042760536,0.48371732,0.0023276242,-0.1405214,1.5187501,-8.71875,-32.9625
1763129434887,-1.5762719,7.763513,5.577071,0.083688475,-0.20173809,0.042760536,0.48371732,0.0023276242,-0.1405214,1.5187501,-8.71875,-32.9625
1763129434899,-1.5762719,7.763513,5.577071,0.083688475,-0.20173809,0.042760536,0.48402813,1.4288972E-4,-0.14120896,1.5187501,-8.71875,-32.9625
1763129434900,-1.5762719,7.763513,5.577071,0.083688475,-0.20173809,0.042760536,0.48402813,1.4288972E-4,-0.14120896,2.025,-7.8,-33.075
1763129434907,-1.5762719,7.763513,5.577071,0.11133011,-0.16615522,0.12767074,0.48402813,1.4288972E-4,-0.14120896,2.025,-7.8,-33.075
1763129434908,-1.4943178,8.069795,4.9932227,0.11133011,-0.16615522,0.12767074,0.48402813,1.4288972E-4,-0.14120896,2.025,-7.8,-33.075
1763129434917,-1.4943178,8.069795,4.9932227,0.11133011,-0.16615522,0.12767074,0.4846701,-0.0021629012,-0.14105777,2.025,-7.8,-33.075
1763129434918,-1.4943178,8.069795,4.9932227,0.11133011,-0.16615522,0.12767074,0.4846701,-0.0021629012,-0.14105777,1.03125,-9.637501,-32.11875
1763129434928,-1.4943178,8.069795,4.9932227,-0.0010690134,-0.23869541,0.07620538,0.4846701,-0.0021629012,-0.14105777,1.03125,-9.637501,-32.11875
1763129434929,-1.2287145,8.423932,4.776074,-0.0010690134,-0.23869541,0.07620538,0.4846701,-0.0021629012,-0.14105777,1.03125,-9.637501,-32.11875
1763129434937,-1.2287145,8.423932,4.776074,-0.0010690134,-0.23869541,0.07620538,0.48433125,-0.004689314,-0.14166799,1.03125,-9.637501,-32.11875
1763129434938,-1.2287145,8.423932,4.776074,-0.0010690134,-0.23869541,0.07620538,0.48433125,-0.004689314,-0.14166799,1.3312501,-9.09375,-32.925003
1763129434949,-1.2287145,8.423932,4.776074,-0.20143266,-0.18051054,-0.05742129,0.48433125,-0.004689314,-0.14166799,1.3312501,-9.09375,-32.925003
1763129434950,-1.1617154,8.532805,4.7222357,-0.20143266,-0.18051054,-0.05742129,0.48433125,-0.004689314,-0.14166799,1.3312501,-9.09375,-32.925003
1763129434958,-1.1617154,8.532805,4.7222357,-0.20143266,-0.18051054,-0.05742129,0.48235402,-0.005726619,-0.143059,1.3312501,-9.09375,-32.925003
1763129434959,-1.1617154,8.532805,4.7222357,-0.20143266,-0.18051054,-0.05742129,0.48235402,-0.005726619,-0.143059,1.2,-8.175,-34.125
1763129434969,-1.1617154,8.532805,4.7222357,-0.45295623,-0.13164136,-0.15515965,0.48235402,-0.005726619,-0.143059,1.2,-8.175,-34.125
1763129434970,-1.2454642,8.209176,4.6002016,-0.45295623,-0.13164136,-0.15515965,0.48235402,-0.005726619,-0.143059,1.2,-8.175,-34.125
1763129434978,-1.2454642,8.209176,4.6002016,-0.45295623,-0.13164136,-0.15515965,0.47820985,-0.005451992,-0.14504997,1.2,-8.175,-34.125
1763129434980,-1.2454642,8.209176,4.6002016,-0.45295623,-0.13164136,-0.15515965,0.47820985,-0.005451992,-0.14504997,0.375,-9.618751,-31.406252
1763129434991,-1.4913267,7.9316087,4.7318068,-0.45295623,-0.13164136,-0.15515965,0.47820985,-0.005451992,-0.14504997,0.375,-9.618751,-31.406252
1763129434993,-1.4913267,7.9316087,4.7318068,-0.6395754,-0.15851942,-0.13927718,0.47820985,-0.005451992,-0.14504997,0.375,-9.618751,-31.406252
1763129434997,-1.4913267,7.9316087,4.7318068,-0.6395754,-0.15851942,-0.13927718,0.4723234,-0.005206202,-0.14707462,0.375,-9.618751,-31.406252
1763129434998,-1.4913267,7.9316087,4.7318068,-0.6395754,-0.15851942,-0.13927718,0.4723234,-0.005206202,-0.14707462,-1.3687501,-11.325001,-32.381252
1763129435012,-1.4913267,7.9316087,4.7318068,-0.7382301,-0.1375973,-0.0537561,0.4723234,-0.005206202,-0.14707462,-1.3687501,-11.325001,-32.381252
1763129435013,-1.727618,7.6743803,5.3150573,-0.7382301,-0.1375973,-0.0537561,0.4723234,-0.005206202,-0.14707462,-1.3687501,-11.325001,-32.381252
1763129435018,-1.727618,7.6743803,5.3150573,-0.7382301,-0.1375973,-0.0537561,0.4655175,-0.0050176326,-0.1483239,-1.3687501,-11.325001,-32.381252
1763129435019,-1.727618,7.6743803,5.3150573,-0.7382301,-0.1375973,-0.0537561,0.4655175,-0.0050176326,-0.1483239,0.056250002,-8.418751,-32.11875
1763129435033,-1.727618,7.6743803,5.3150573,-0.6221658,-0.1707367,0.06887501,0.4655175,-0.0050176326,-0.1483239,0.056250002,-8.418751,-32.11875
1763129435035,-1.4799608,7.8496547,6.0173507,-0.6221658,-0.1707367,0.06887501,0.4655175,-0.0050176326,-0.1483239,0.056250002,-8.418751,-32.11875
1763129435038,-1.4799608,7.8496547,6.0173507,-0.6221658,-0.1707367,0.06887501,0.4595837,-0.005897021,-0.14873834,0.056250002,-8.418751,-32.11875
1763129435039,-1.4799608,7.8496547,6.0173507,-0.6221658,-0.1707367,0.06887501,0.4595837,-0.005897021,-0.14873834,-0.5625,-9.20625,-33.75
1763129435054,-1.4799608,7.8496547,6.0173507,-0.4411971,-0.08185588,0.052687086,0.4595837,-0.005897021,-0.14873834,-0.5625,-9.20625,-33.75
1763129435055,-0.9906286,8.039884,6.1830535,-0.4411971,-0.08185588,0.052687086,0.4595837,-0.005897021,-0.14873834,-0.5625,-9.20625,-33.75
1763129435059,-0.9906286,8.039884,6.1830535,-0.4411971,-0.08185588,0.052687086,0.4595837,-0.005897021,-0.14873834,1.2,-6.7125,-33.300003
1763129435060,-0.9906286,8.039884,6.1830535,-0.4411971,-0.08185588,0.052687086,0.45534626,-0.006195334,-0.14878488,1.2,-6.7125,-33.300003
1763129435075,-0.9906286,8.039884,6.1830535,-0.3121519,0.023976443,-0.027488915,0.45534626,-0.006195334,-0.14878488,1.2,-6.7125,-33.300003
1763129435076,-0.91106725,7.969894,5.986842,-0.3121519,0.023976443,-0.027488915,0.45534626,-0.006195334,-0.14878488,1.2,-6.7125,-33.300003
1763129435078,-0.91106725,7.969894,5.986842,-0.3121519,0.023976443,-0.027488915,0.45245898,-0.005385749,-0.14885585,1.2,-6.7125,-33.300003
1763129435080,-0.91106725,7.969894,5.986842,-0.3121519,0.023976443,-0.027488915,0.45245898,-0.005385749,-0.14885585,1.2750001,-7.0312505,-34.40625
1763129435096,-0.91106725,7.969894,5.986842,-0.19394957,-0.010537418,-0.09590577,0.45245898,-0.005385749,-0.14885585,1.2750001,-7.0312505,-34.40625
1763129435097,-0.91106725,7.969894,5.986842,-0.19394957,-0.010537418,-0.09590577,0.4506438,-0.0047593582,-0.14967148,1.2750001,-7.0312505,-34.40625
1763129435098,-0.91106725,7.969894,5.986842,-0.19394957,-0.010537418,-0.09590577,0.4506438,-0.0047593582,-0.14967148,-0.975,-8.19375,-33.862503
1763129435099,-1.0671989,8.122437,5.4185467,-0.19394957,-0.010537418,-0.09590577,0.4506438,-0.0047593582,-0.14967148,-0.975,-8.19375,-33.862503
1763129435118,-1.0671989,8.122437,5.4185467,-0.19394957,-0.010537418,-0.09590577,0.44922557,-0.0052267592,-0.15181832,-0.975,-8.19375,-33.862503
1763129435119,-1.0671989,8.122437,5.4185467,-0.14065161,-0.15760311,-0.16447534,0.44922557,-0.0052267592,-0.15181832,-0.975,-8.19375,-33.862503
1763129435121,-1.0671989,8.122437,5.4185467,-0.14065161,-0.15760311,-0.16447534,0.44922557,-0.0052267592,-0.15181832,-0.13125001,-7.8375,-34.612503
1763129435122,-1.1916257,8.094321,5.4017973,-0.14065161,-0.15760311,-0.16447534,0.44922557,-0.0052267592,-0.15181832,-0.13125001,-7.8375,-34.612503
1763129435140,-1.1916257,8.094321,5.4017973,-0.1915061,-0.19181155,-0.17088942,0.44922557,-0.0052267592,-0.15181832,-0.13125001,-7.8375,-34.612503
1763129435141,-1.1916257,8.094321,5.4017973,-0.1915061,-0.19181155,-0.17088942,0.44729158,-0.00588623,-0.15422754,-0.13125001,-7.8375,-34.612503
1763129435142,-1.1916257,8.094321,5.4017973,-0.1915061,-0.19181155,-0.17088942,0.44729158,-0.00588623,-0.15422754,-0.13125001,-7.8375,-34.612503
1763129435144,-1.2747762,7.832905,5.613562,-0.1915061,-0.19181155,-0.17088942,0.44729158,-0.00588623,-0.15422754,-0.13125001,-7.8375,-34.612503
1763129435157,-1.2747762,7.832905,5.613562,-0.1915061,-0.19181155,-0.17088942,0.44729158,-0.00588623,-0.15422754,-1.7812501,-8.700001,-33.956253
1763129435158,-1.2747762,7.832905,5.613562,-0.26328272,-0.332005,-0.07437278,0.44729158,-0.00588623,-0.15422754,-1.7812501,-8.700001,-33.956253
1763129435160,-1.2747762,7.832905,5.613562,-0.26328272,-0.332005,-0.07437278,0.44439507,-0.008170419,-0.15647668,-1.7812501,-8.700001,-33.956253
1763129435161,-1.7766708,6.419345,4.2352962,-0.26328272,-0.332005,-0.07437278,0.44439507,-0.008170419,-0.15647668,-1.7812501,-8.700001,-33.956253
1763129435178,-1.7766708,6.419345,4.2352962,-0.26328272,-0.332005,-0.07437278,0.44439507,-0.008170419,-0.15647668,0.0,-6.3562503,-34.050003
1763129435180,-1.7766708,6.419345,4.2352962,-0.5439751,-0.91477,0.17027856,0.44439507,-0.008170419,-0.15647668,0.0,-6.3562503,-34.050003
1763129435184,-1.7766708,6.419345,4.2352962,-0.5439751,-0.91477,0.17027856,0.43798345,-0.016437663,-0.15946524,0.0,-6.3562503,-34.050003
1763129435185,-1.9776679,7.192825,3.6885362,-0.5439751,-0.91477,0.17027856,0.43798345,-0.016437663,-0.15946524,0.0,-6.3562503,-34.050003
1763129435199,-1.9776679,7.192825,3.6885362,-0.5439751,-0.91477,0.17027856,0.43798345,-0.016437663,-0.15946524,-2.34375,-7.70625,-33.61875
1763129435200,-1.9776679,7.192825,3.6885362,-0.84360427,-0.88407403,0.26358816,0.43798345,-0.016437663,-0.15946524,-2.34375,-7.70625,-33.61875
1763129435201,-1.9776679,7.192825,3.6885362,-0.84360427,-0.88407403,0.26358816,0.42901093,-0.024296915,-0.16146907,-2.34375,-7.70625,-33.61875
1763129435202,-1.4243277,8.084151,4.7629137,-0.84360427,-0.88407403,0.26358816,0.42901093,-0.024296915,-0.16146907,-2.34375,-7.70625,-33.61875
1763129435219,-1.4243277,8.084151,4.7629137,-0.84360427,-0.88407403,0.26358816,0.42901093,-0.024296915,-0.16146907,-2.8500001,-6.05625,-34.36875
1763129435223,-1.4243277,8.084151,4.7629137,-0.84360427,-0.88407403,0.26358816,0.41801083,-0.03242527,-0.16449803,-2.8500001,-6.05625,-34.36875
1763129435224,-1.4243277,8.084151,4.7629137,-1.0341941,-0.9812015,0.18203771,0.41801083,-0.03242527,-0.16449803,-2.8500001,-6.05625,-34.36875
1763129435226,-0.7477571,7.210771,4.5188456,-1.0341941,-0.9812015,0.18203771,0.41801083,-0.03242527,-0.16449803,-2.8500001,-6.05625,-34.36875
1763129435241,-0.7477571,7.210771,4.5188456,-1.0341941,-0.9812015,0.18203771,0.41801083,-0.03242527,-0.16449803,-3.0,-5.1375003,-34.800003
1763129435244,-0.7477571,7.210771,4.5188456,-1.0341941,-0.9812015,0.18203771,0.40457985,-0.043577153,-0.17036983,-3.0,-5.1375003,-34.800003
1763129435245,-0.7477571,7.210771,4.5188456,-1.2049308,-1.3900228,0.055130545,0.40457985,-0.043577153,-0.17036983,-3.0,-5.1375003,-34.800003
1763129435246,-0.58683974,6.8015985,4.938786,-1.2049308,-1.3900228,0.055130545,0.40457985,-0.043577153,-0.17036983,-3.0,-5.1375003,-34.800003
1763129435257,-0.58683974,6.8015985,4.938786,-1.2049308,-1.3900228,0.055130545,0.40457985,-0.043577153,-0.17036983,-5.4375,-4.40625,-33.75
1763129435266,-0.58683974,6.8015985,4.938786,-1.2049308,-1.3900228,0.055130545,0.39121416,-0.054359186,-0.17643215,-5.4375,-4.40625,-33.75
1763129435267,-0.58683974,6.8015985,4.938786,-1.1800381,-1.3636029,0.02046397,0.39121416,-0.054359186,-0.17643215,-5.4375,-4.40625,-33.75
1763129435268,-0.38404804,6.9248285,8.592028,-1.1800381,-1.3636029,0.02046397,0.39121416,-0.054359186,-0.17643215,-5.4375,-4.40625,-33.75
1763129435277,-0.38404804,6.9248285,8.592028,-1.1800381,-1.3636029,0.02046397,0.39121416,-0.054359186,-0.17643215,-6.0375004,-6.3,-32.0625
1763129435284,-0.38404804,6.9248285,8.592028,-1.1800381,-1.3636029,0.02046397,0.38270614,-0.058875572,-0.17919089,-6.0375004,-6.3,-32.0625
1763129435286,-0.38404804,6.9248285,8.592028,-0.74342245,-0.60857403,0.035430156,0.38270614,-0.058875572,-0.17919089,-6.0375004,-6.3,-32.0625
1763129435287,-0.025124637,6.2991056,9.273384,-0.74342245,-0.60857403,0.035430156,0.38270614,-0.058875572,-0.17919089,-6.0375004,-6.3,-32.0625
1763129435299,-0.025124637,6.2991056,9.273384,-0.74342245,-0.60857403,0.035430156,0.38270614,-0.058875572,-0.17919089,-5.4375,-4.5375004,-32.04375
1763129435306,-0.025124637,6.2991056,9.273384,-0.23350306,-0.31444263,0.09086613,0.38270614,-0.058875572,-0.17919089,-5.4375,-4.5375004,-32.04375
1763129435307,-0.60777694,6.352346,9.305089,-0.23350306,-0.31444263,0.09086613,0.38270614,-0.058875572,-0.17919089,-5.4375,-4.5375004,-32.04375
1763129435318,-0.60777694,6.352346,9.305089,-0.23350306,-0.31444263,0.09086613,0.38270614,-0.058875572,-0.17919089,-7.0687504,-4.4625,-34.36875
1763129435319,-0.60777694,6.352346,9.305089,-0.23350306,-0.31444263,0.09086613,0.38020122,-0.056130137,-0.16633847,-7.0687504,-4.4625,-34.36875
1763129435327,-0.60777694,6.352346,9.305089,0.14691298,-0.15897755,0.2102902,0.38020122,-0.056130137,-0.16633847,-7.0687504,-4.4625,-34.36875
1763129435328,-0.7292127,6.7447686,8.115258,0.14691298,-0.15897755,0.2102902,0.38020122,-0.056130137,-0.16633847,-7.0687504,-4.4625,-34.36875
1763129435338,-0.7292127,6.7447686,8.115258,0.14691298,-0.15897755,0.2102902,0.38194773,-0.04987992,-0.14424613,-7.0687504,-4.4625,-34.36875
1763129435339,-0.7292127,6.7447686,8.115258,0.14691298,-0.15897755,0.2102902,0.38194773,-0.04987992,-0.14424613,-7.33125,-5.175,-35.625
1763129435349,-0.7292127,6.7447686,8.115258,0.2441932,-0.18982624,0.24190246,0.38194773,-0.04987992,-0.14424613,-7.33125,-5.175,-35.625
1763129435352,-0.4432704,7.0839515,7.129415,0.2441932,-0.18982624,0.24190246,0.38194773,-0.04987992,-0.14424613,-7.33125,-5.175,-35.625
1763129435357,-0.4432704,7.0839515,7.129415,0.2441932,-0.18982624,0.24190246,0.38377327,-0.05186232,-0.14027385,-7.33125,-5.175,-35.625
1763129435358,-0.4432704,7.0839515,7.129415,0.2441932,-0.18982624,0.24190246,0.38377327,-0.05186232,-0.14027385,-6.2250004,-3.6000001,-32.53125
1763129435368,-0.4432704,7.0839515,7.129415,0.11102467,-0.19104797,0.2367101,0.38377327,-0.05186232,-0.14027385,-6.2250004,-3.6000001,-32.53125
1763129435368,-0.13758731,7.2903323,6.7609205,0.11102467,-0.19104797,0.2367101,0.38377327,-0.05186232,-0.14027385,-6.2250004,-3.6000001,-32.53125
1763129435378,-0.13758731,7.2903323,6.7609205,0.11102467,-0.19104797,0.2367101,0.38511422,-0.049438734,-0.12625389,-6.2250004,-3.6000001,-32.53125
1763129435379,-0.13758731,7.2903323,6.7609205,0.11102467,-0.19104797,0.2367101,0.38511422,-0.049438734,-0.12625389,-4.2562504,-2.34375,-32.287502
1763129435390,-0.13758731,7.2903323,6.7609205,-0.05589413,-0.098960094,0.25992295,0.38511422,-0.049438734,-0.12625389,-4.2562504,-2.34375,-32.287502
1763129435392,0.27158538,7.52782,7.048059,-0.05589413,-0.098960094,0.25992295,0.38511422,-0.049438734,-0.12625389,-4.2562504,-2.34375,-32.287502
1763129435398,0.27158538,7.52782,7.048059,-0.05589413,-0.098960094,0.25992295,0.38477898,-0.04823789,-0.116820686,-4.2562504,-2.34375,-32.287502
1763129435399,0.27158538,7.52782,7.048059,-0.05589413,-0.098960094,0.25992295,0.38477898,-0.04823789,-0.116820686,-6.7500005,-5.8125,-32.7
1763129435411,0.27158538,7.52782,7.048059,-0.049480047,0.03940078,0.22739442,0.38477898,-0.04823789,-0.116820686,-6.7500005,-5.8125,-32.7
1763129435412,0.6430711,7.517052,7.4189467,-0.049480047,0.03940078,0.22739442,0.38477898,-0.04823789,-0.116820686,-6.7500005,-5.8125,-32.7
1763129435418,0.6430711,7.517052,7.4189467,-0.049480047,0.03940078,0.22739442,0.3840938,-0.050253194,-0.11796989,-6.7500005,-5.8125,-32.7
1763129435419,0.6430711,7.517052,7.4189467,-0.049480047,0.03940078,0.22739442,0.3840938,-0.050253194,-0.11796989,-7.36875,-5.15625,-32.60625
1763129435432,0.6430711,7.517052,7.4189467,0.12935062,0.14416409,0.13408482,0.3840938,-0.050253194,-0.11796989,-7.36875,-5.15625,-32.60625
1763129435434,0.5694918,7.3489566,7.3920274,0.12935062,0.14416409,0.13408482,0.3840938,-0.050253194,-0.11796989,-7.36875,-5.15625,-32.60625
1763129435438,0.5694918,7.3489566,7.3920274,0.12935062,0.14416409,0.13408482,0.38543606,-0.049494136,-0.11544962,-7.36875,-5.15625,-32.60625
1763129435439,0.5694918,7.3489566,7.3920274,0.12935062,0.14416409,0.13408482,0.38543606,-0.049494136,-0.11544962,-7.05,-3.9750001,-33.28125
1763129435453,0.5694918,7.3489566,7.3920274,0.3130682,0.23686282,0.1018617,0.38543606,-0.049494136,-0.11544962,-7.05,-3.9750001,-33.28125
1763129435454,0.4959125,7.38784,7.312466,0.3130682,0.23686282,0.1018617,0.38543606,-0.049494136,-0.11544962,-7.05,-3.9750001,-33.28125
1763129435458,0.4959125,7.38784,7.312466,0.3130682,0.23686282,0.1018617,0.38863206,-0.04788227,-0.11269279,-7.05,-3.9750001,-33.28125
1763129435459,0.4959125,7.38784,7.312466,0.3130682,0.23686282,0.1018617,0.38863206,-0.04788227,-0.11269279,-5.7000003,-4.4437504,-32.006252
1763129435474,0.4959125,7.38784,7.312466,0.37690356,0.38713557,0.10399973,0.38863206,-0.04788227,-0.11269279,-5.7000003,-4.4437504,-32.006252
1763129435475,0.39541394,7.3621173,6.843473,0.37690356,0.38713557,0.10399973,0.38863206,-0.04788227,-0.11269279,-5.7000003,-4.4437504,-32.006252
1763129435478,0.39541394,7.3621173,6.843473,0.37690356,0.38713557,0.10399973,0.39241394,-0.046543766,-0.113087066,-5.7000003,-4.4437504,-32.006252
1763129435479,0.39541394,7.3621173,6.843473,0.37690356,0.38713557,0.10399973,0.39241394,-0.046543766,-0.113087066,-5.64375,-4.6125,-33.91875
1763129435495,0.39541394,7.3621173,6.843473,0.31703883,0.4882337,0.09468404,0.39241394,-0.046543766,-0.113087066,-5.64375,-4.6125,-33.91875
1763129435496,-0.02871387,7.1916285,6.404988,0.31703883,0.4882337,0.09468404,0.39241394,-0.046543766,-0.113087066,-5.64375,-4.6125,-33.91875
1763129435498,-0.02871387,7.1916285,6.404988,0.31703883,0.4882337,0.09468404,0.39611062,-0.04139236,-0.106832646,-5.64375,-4.6125,-33.91875
1763129435499,-0.02871387,7.1916285,6.404988,0.31703883,0.4882337,0.09468404,0.39611062,-0.04139236,-0.106832646,-6.80625,-7.1062503,-31.462502
1763129435516,-0.02871387,7.1916285,6.404988,0.1838703,0.56184286,0.16187917,0.39611062,-0.04139236,-0.106832646,-6.80625,-7.1062503,-31.462502
1763129435517,-0.48454657,6.943971,6.1274204,0.1838703,0.56184286,0.16187917,0.39611062,-0.04139236,-0.106832646,-6.80625,-7.1062503,-31.462502
1763129435519,-0.48454657,6.943971,6.1274204,0.1838703,0.56184286,0.16187917,0.39840943,-0.037499566,-0.104149245,-6.80625,-7.1062503,-31.462502
1763129435521,-0.48454657,6.943971,6.1274204,0.1838703,0.56184286,0.16187917,0.39840943,-0.037499566,-0.104149245,-5.4187503,-4.55625,-32.79375
1763129435538,-0.48454657,6.943971,6.1274204,0.1838703,0.56184286,0.16187917,0.3995256,-0.034656808,-0.10079768,-5.4187503,-4.55625,-32.79375
1763129435539,-0.48454657,6.943971,6.1274204,0.07467822,0.41325003,0.21563527,0.3995256,-0.034656808,-0.10079768,-5.4187503,-4.55625,-32.79375
1763129435540,-0.48454657,6.943971,6.1274204,0.07467822,0.41325003,0.21563527,0.3995256,-0.034656808,-0.10079768,-3.6937501,-3.2062502,-35.0625
1763129435544,-0.38285163,7.2532434,5.8767724,0.07467822,0.41325003,0.21563527,0.3995256,-0.034656808,-0.10079768,-3.6937501,-3.2062502,-35.0625
1763129435558,-0.30329028,7.5122666,5.143372,0.07467822,0.41325003,0.21563527,0.3995256,-0.034656808,-0.10079768,-3.6937501,-3.2062502,-35.0625
1763129435559,-0.30329028,7.5122666,5.143372,0.08170316,0.19868377,0.08078687,0.3995256,-0.034656808,-0.10079768,-3.6937501,-3.2062502,-35.0625
1763129435559,-0.30329028,7.5122666,5.143372,0.08170316,0.19868377,0.08078687,0.4006662,-0.032677263,-0.09810374,-3.6937501,-3.2062502,-35.0625
1763129435560,-0.30329028,7.5122666,5.143372,0.08170316,0.19868377,0.08078687,0.4006662,-0.032677263,-0.09810374,-7.18125,-6.24375,-33.768753
1763129435578,-0.30329028,7.5122666,5.143372,0.08170316,0.19868377,0.08078687,0.4006662,-0.032677263,-0.09810374,-8.38125,-5.3812504,-30.73125
1763129435579,-0.30329028,7.5122666,5.143372,0.021685699,-0.14905101,-0.08628465,0.4006662,-0.032677263,-0.09810374,-8.38125,-5.3812504,-30.73125
1763129435579,-0.30329028,7.5122666,5.143372,0.021685699,-0.14905101,-0.08628465,0.40100372,-0.034334056,-0.10085072,-8.38125,-5.3812504,-30.73125
1763129435580,-0.25663024,7.3603225,6.1531434,0.021685699,-0.14905101,-0.08628465,0.40100372,-0.034334056,-0.10085072,-8.38125,-5.3812504,-30.73125
1763129435597,-0.25663024,7.3603225,6.1531434,0.021685699,-0.14905101,-0.08628465,0.40100372,-0.034334056,-0.10085072,-5.25,-4.8375,-32.98125
1763129435599,-0.25663024,7.3603225,6.1531434,0.021685699,-0.14905101,-0.08628465,0.40013558,-0.036058657,-0.10483401,-5.25,-4.8375,-32.98125
1763129435599,-0.25663024,7.3603225,6.1531434,-0.082466744,-0.123547405,-0.10338886,0.40013558,-0.036058657,-0.10483401,-5.25,-4.8375,-32.98125
1763129435600,-0.0735793,7.2376904,6.672386,-0.082466744,-0.123547405,-0.10338886,0.40013558,-0.036058657,-0.10483401,-5.25,-4.8375,-32.98125
1763129435619,-0.0735793,7.2376904,6.672386,-0.082466744,-0.123547405,-0.10338886,0.40013558,-0.036058657,-0.10483401,-9.75,-2.625,-29.587502
1763129435621,-0.0735793,7.2376904,6.672386,-0.082466744,-0.123547405,-0.10338886,0.39775544,-0.03483134,-0.10679507,-9.75,-2.625,-29.587502
1763129435622,-0.0735793,7.2376904,6.672386,-0.2612974,0.08414663,-0.13668099,0.39775544,-0.03483134,-0.10679507,-9.75,-2.625,-29.587502
1763129435622,0.106480606,7.3728848,7.3381886,-0.2612974,0.08414663,-0.13668099,0.39775544,-0.03483134,-0.10679507,-9.75,-2.625,-29.587502
1763129435647,0.106480606,7.3728848,7.3381886,-0.2612974,0.08414663,-0.13668099,0.39775544,-0.03483134,-0.10679507,-7.2937503,-5.4750004,-33.7125
1763129435648,0.106480606,7.3728848,7.3381886,-0.2612974,0.08414663,-0.13668099,0.39563593,-0.030806754,-0.107316904,-7.2937503,-5.4750004,-33.7125
1763129435649,0.106480606,7.3728848,7.3381886,-0.25747952,0.3110829,-0.19410229,0.39563593,-0.030806754,-0.107316904,-7.2937503,-5.4750004,-33.7125
1763129435649,-0.4863412,6.9278197,6.9505515,-0.25747952,0.3110829,-0.19410229,0.39563593,-0.030806754,-0.107316904,-7.2937503,-5.4750004,-33.7125
