timestamp,accX,accY,accZ,gyroX,gyroY,gyroZ,rotX,rotY,rotZ,magX,magY,magZ
1763129306558,-2.7026932,5.860621,5.5591254,-0.13820815,-0.3817905,0.21166465,0.3007279,-0.14386319,-0.7938456,10.6125,-18.768751,-28.837502
1763129306562,-2.7026932,5.860621,5.5591254,-0.4827359,-0.5638282,-0.1084285,0.3007279,-0.14386319,-0.7938456,10.6125,-18.768751,-28.837502
1763129306562,-2.7026932,5.860621,5.5591254,-0.4827359,-0.5638282,-0.1084285,0.2940894,-0.1424067,-0.79600513,10.6125,-18.768751,-28.837502
1763129306562,-2.487339,6.2530437,6.439684,-0.4827359,-0.5638282,-0.1084285,0.2940894,-0.1424067,-0.79600513,10.6125,-18.768751,-28.837502
1763129306589,-2.487339,6.2530437,6.439684,-0.4827359,-0.5638282,-0.1084285,0.2940894,-0.1424067,-0.79600513,6.0750003,-19.1625,-28.406252
1763129306589,-2.487339,6.2530437,6.439684,-0.4827359,-0.5638282,-0.1084285,0.28618434,-0.1403666,-0.80016327,6.0750003,-19.1625,-28.406252
1763129306593,-2.487339,6.2530437,6.439684,-0.5545125,-0.7014255,-0.37934703,0.28618434,-0.1403666,-0.80016327,6.0750003,-19.1625,-28.406252
1763129306593,-2.536392,5.8307104,7.6390862,-0.5545125,-0.7014255,-0.37934703,0.28618434,-0.1403666,-0.80016327,6.0750003,-19.1625,-28.406252
1763129306599,-2.536392,5.8307104,7.6390862,-0.5545125,-0.7014255,-0.37934703,0.28618434,-0.1403666,-0.80016327,4.03125,-21.712502,-26.812502
1763129306605,-2.536392,5.8307104,7.6390862,-0.4140136,-0.68875,-0.47387835,0.28618434,-0.1403666,-0.80016327,4.03125,-21.712502,-26.812502
1763129306606,-2.536392,5.8307104,7.6390862,-0.4140136,-0.68875,-0.47387835,0.2789785,-0.13922846,-0.80497473,4.03125,-21.712502,-26.812502
1763129306606,-2.6368906,5.2163534,8.30788,-0.4140136,-0.68875,-0.47387835,0.2789785,-0.13922846,-0.80497473,4.03125,-21.712502,-26.812502
1763129306618,-2.6368906,5.2163534,8.30788,-0.4140136,-0.68875,-0.47387835,0.2789785,-0.13922846,-0.80497473,3.16875,-18.712502,-27.2625
1763129306625,-2.6368906,5.2163534,8.30788,-0.31383178,-0.57971066,-0.40210176,0.2789785,-0.13922846,-0.80497473,3.16875,-18.712502,-27.2625
1763129306626,-2.6368906,5.2163534,8.30788,-0.31383178,-0.57971066,-0.40210176,0.27291423,-0.13857065,-0.80925274,3.16875,-18.712502,-27.2625
1763129306626,-2.9036903,4.6229334,8.084151,-0.31383178,-0.57971066,-0.40210176,0.27291423,-0.13857065,-0.80925274,3.16875,-18.712502,-27.2625
1763129306638,-2.9036903,4.6229334,8.084151,-0.31383178,-0.57971066,-0.40210176,0.27291423,-0.13857065,-0.80925274,2.7562501,-21.54375,-28.143751
1763129306646,-2.9036903,4.6229334,8.084151,-0.2942841,-0.51282096,-0.27427828,0.27291423,-0.13857065,-0.80925274,2.7562501,-21.54375,-28.143751
1763129306646,-2.8761728,4.5475593,8.023732,-0.2942841,-0.51282096,-0.27427828,0.27291423,-0.13857065,-0.80925274,2.7562501,-21.54375,-28.143751
1763129306659,-2.8761728,4.5475593,8.023732,-0.2942841,-0.51282096,-0.27427828,0.26735544,-0.13798185,-0.8126667,2.7562501,-21.54375,-28.143751
1763129306659,-2.8761728,4.5475593,8.023732,-0.2942841,-0.51282096,-0.27427828,0.26735544,-0.13798185,-0.8126667,1.9125,-22.556252,-29.493752
1763129306667,-2.8761728,4.5475593,8.023732,-0.34162614,-0.4187478,-0.22739442,0.26735544,-0.13798185,-0.8126667,1.9125,-22.556252,-29.493752
1763129306668,-2.7696922,4.8173504,8.181659,-0.34162614,-0.4187478,-0.22739442,0.26735544,-0.13798185,-0.8126667,1.9125,-22.556252,-29.493752
1763129306677,-2.7696922,4.8173504,8.181659,-0.34162614,-0.4187478,-0.22739442,0.26229894,-0.13660793,-0.81556845,1.9125,-22.556252,-29.493752
1763129306679,-2.7696922,4.8173504,8.181659,-0.34162614,-0.4187478,-0.22739442,0.26229894,-0.13660793,-0.81556845,4.55625,-19.35,-28.35
1763129306688,-2.7696922,4.8173504,8.181659,-0.32207847,-0.37476555,-0.25518876,0.26229894,-0.13660793,-0.81556845,4.55625,-19.35,-28.35
1763129306689,-2.8456643,4.8191447,8.392227,-0.32207847,-0.37476555,-0.25518876,0.26229894,-0.13660793,-0.81556845,4.55625,-19.35,-28.35
1763129306697,-2.8456643,4.8191447,8.392227,-0.32207847,-0.37476555,-0.25518876,0.26229894,-0.13660793,-0.81556845,3.9750001,-19.650002,-27.825
1763129306698,-2.8456643,4.8191447,8.392227,-0.32207847,-0.37476555,-0.25518876,0.25777817,-0.1351197,-0.8183435,3.9750001,-19.650002,-27.825
1763129306709,-2.8456643,4.8191447,8.392227,-0.2554942,-0.3675879,-0.26450446,0.25777817,-0.1351197,-0.8183435,3.9750001,-19.650002,-27.825
1763129306710,-3.0897322,4.5541396,8.41795,-0.2554942,-0.3675879,-0.26450446,0.25777817,-0.1351197,-0.8183435,3.9750001,-19.650002,-27.825
1763129306718,-3.0897322,4.5541396,8.41795,-0.2554942,-0.3675879,-0.26450446,0.2536776,-0.13412517,-0.82103014,3.9750001,-19.650002,-27.825
1763129306719,-3.0897322,4.5541396,8.41795,-0.2554942,-0.3675879,-0.26450446,0.2536776,-0.13412517,-0.82103014,3.7875001,-19.21875,-28.9125
1763129306730,-3.0897322,4.5541396,8.41795,-0.22388195,-0.3280344,-0.1951713,0.2536776,-0.13412517,-0.82103014,3.7875001,-19.21875,-28.9125
1763129306730,-3.2368908,4.299304,8.392227,-0.22388195,-0.3280344,-0.1951713,0.2536776,-0.13412517,-0.82103014,3.7875001,-19.21875,-28.9125
1763129306739,-3.2368908,4.299304,8.392227,-0.22388195,-0.3280344,-0.1951713,0.25000837,-0.13330843,-0.82321906,3.7875001,-19.21875,-28.9125
1763129306740,-3.2368908,4.299304,8.392227,-0.22388195,-0.3280344,-0.1951713,0.25000837,-0.13330843,-0.82321906,3.16875,-19.368752,-28.743752
1763129306751,-3.2368908,4.299304,8.392227,-0.20021093,-0.27107126,-0.110108376,0.25000837,-0.13330843,-0.82321906,3.16875,-19.368752,-28.743752
1763129306752,-3.01376,4.289733,8.531011,-0.20021093,-0.27107126,-0.110108376,0.25000837,-0.13330843,-0.82321906,3.16875,-19.368752,-28.743752
1763129306757,-3.01376,4.289733,8.531011,-0.20021093,-0.27107126,-0.110108376,0.24684626,-0.13257219,-0.82480615,3.16875,-19.368752,-28.743752
1763129306759,-3.01376,4.289733,8.531011,-0.20021093,-0.27107126,-0.110108376,0.24684626,-0.13257219,-0.82480615,4.8,-19.143751,-28.781252
1763129306772,-3.01376,4.289733,8.531011,-0.14156792,-0.19532402,-0.060322896,0.24684626,-0.13257219,-0.82480615,4.8,-19.143751,-28.781252
1763129306773,-2.7816563,4.3633122,8.675179,-0.14156792,-0.19532402,-0.060322896,0.24684626,-0.13257219,-0.82480615,4.8,-19.143751,-28.781252
1763129306777,-2.7816563,4.3633122,8.675179,-0.14156792,-0.19532402,-0.060322896,0.24450672,-0.1321307,-0.8259042,4.8,-19.143751,-28.781252
1763129306779,-2.7816563,4.3633122,8.675179,-0.14156792,-0.19532402,-0.060322896,0.24450672,-0.1321307,-0.8259042,2.325,-19.21875,-25.85625
1763129306793,-2.7816563,4.3633122,8.675179,-0.08491021,-0.12675445,-0.027488915,0.24450672,-0.1321307,-0.8259042,2.325,-19.21875,-25.85625
1763129306794,-2.7152555,4.418347,8.459227,-0.08491021,-0.12675445,-0.027488915,0.24450672,-0.1321307,-0.8259042,2.325,-19.21875,-25.85625
1763129306798,-2.7152555,4.418347,8.459227,-0.08491021,-0.12675445,-0.027488915,0.24295051,-0.13196681,-0.82660866,2.325,-19.21875,-25.85625
1763129306799,-2.7152555,4.418347,8.459227,-0.08491021,-0.12675445,-0.027488915,0.24295051,-0.13196681,-0.82660866,1.1812501,-19.96875,-25.706251
1763129306814,-2.7152555,4.418347,8.459227,-0.062155493,-0.08078687,-0.0035124724,0.24295051,-0.13196681,-0.82660866,1.1812501,-19.96875,-25.706251
1763129306814,-2.650051,4.5894337,8.392227,-0.062155493,-0.08078687,-0.0035124724,0.24295051,-0.13196681,-0.82660866,1.1812501,-19.96875,-25.706251
1763129306818,-2.650051,4.5894337,8.392227,-0.062155493,-0.08078687,-0.0035124724,0.24191594,-0.13182633,-0.8269632,1.1812501,-19.96875,-25.706251
1763129306819,-2.650051,4.5894337,8.392227,-0.062155493,-0.08078687,-0.0035124724,0.24191594,-0.13182633,-0.8269632,-4.5750003,-23.212502,-23.6625
1763129306835,-2.650051,4.5894337,8.392227,-0.04459313,-0.07589995,-0.0010690134,0.24191594,-0.13182633,-0.8269632,-4.5750003,-23.212502,-23.6625
1763129306840,-2.5860431,4.6582274,8.30788,-0.04459313,-0.07589995,-0.0010690134,0.24191594,-0.13182633,-0.8269632,-4.5750003,-23.212502,-23.6625
1763129306841,-2.5860431,4.6582274,8.30788,-0.04459313,-0.07589995,-0.0010690134,0.24104439,-0.1318337,-0.82718754,-4.5750003,-23.212502,-23.6625
1763129306842,-2.5860431,4.6582274,8.30788,-0.04459313,-0.07589995,-0.0010690134,0.24104439,-0.1318337,-0.82718754,2.8312502,-18.150002,-27.656252
1763129306857,-2.5860431,4.6582274,8.30788,-0.029626941,-0.08704823,-0.003817905,0.24104439,-0.1318337,-0.82718754,2.8312502,-18.150002,-27.656252
1763129306859,-2.5734808,4.5541396,8.320442,-0.029626941,-0.08704823,-0.003817905,0.24104439,-0.1318337,-0.82718754,2.8312502,-18.150002,-27.656252
1763129306860,-2.5734808,4.5541396,8.320442,-0.029626941,-0.08704823,-0.003817905,0.24017331,-0.13203047,-0.8273888,2.8312502,-18.150002,-27.656252
1763129306861,-2.5734808,4.5541396,8.320442,-0.029626941,-0.08704823,-0.003817905,0.24017331,-0.13203047,-0.8273888,4.6687503,-18.375,-28.725
1763129306878,-2.5734808,4.5541396,8.320442,-0.056352276,-0.056046844,0.007177661,0.24017331,-0.13203047,-0.8273888,4.6687503,-18.375,-28.725
1763129306879,-2.5734808,4.5541396,8.320442,-0.056352276,-0.056046844,0.007177661,0.24017331,-0.13203047,-0.8273888,2.9437501,-19.575,-29.212502
1763129306880,-2.5734808,4.5541396,8.320442,-0.056352276,-0.056046844,0.007177661,0.23940043,-0.13186108,-0.8275299,2.9437501,-19.575,-29.212502
1763129306882,-2.533401,4.5284166,8.270791,-0.056352276,-0.056046844,0.007177661,0.23940043,-0.13186108,-0.8275299,2.9437501,-19.575,-29.212502
1763129306899,-2.533401,4.5284166,8.270791,-0.056352276,-0.056046844,0.007177661,0.23878662,-0.13133931,-0.8277156,2.9437501,-19.575,-29.212502
1763129306901,-2.533401,4.5284166,8.270791,-0.056352276,-0.056046844,0.007177661,0.23878662,-0.13133931,-0.8277156,3.9750001,-19.650002,-28.593752
1763129306903,-2.533401,4.5284166,8.270791,-0.076052666,-0.028710645,-0.010384701,0.23878662,-0.13133931,-0.8277156,3.9750001,-19.650002,-28.593752
1763129306904,-2.4741786,4.6145587,8.333603,-0.076052666,-0.028710645,-0.010384701,0.23878662,-0.13133931,-0.8277156,3.9750001,-19.650002,-28.593752
1763129306917,-2.4741786,4.6145587,8.333603,-0.076052666,-0.028710645,-0.010384701,0.23878662,-0.13133931,-0.8277156,3.7125,-19.706251,-27.900002
1763129306918,-2.6243281,4.5595236,8.325228,-0.076052666,-0.028710645,-0.010384701,0.23878662,-0.13133931,-0.8277156,3.7125,-19.706251,-27.900002
1763129306919,-2.6243281,4.5595236,8.325228,-0.076052666,-0.028710645,-0.010384701,0.23830613,-0.13086012,-0.8280191,3.7125,-19.706251,-27.900002
1763129306920,-2.6243281,4.5595236,8.325228,-0.062613636,-0.025503604,-0.041233372,0.23830613,-0.13086012,-0.8280191,3.7125,-19.706251,-27.900002
1763129306938,-2.6243281,4.5595236,8.325228,-0.062613636,-0.025503604,-0.041233372,0.23830613,-0.13086012,-0.8280191,3.5812502,-19.59375,-28.875002
1763129306941,-2.6243281,4.5595236,8.325228,-0.024587307,-0.06383537,-0.02535089,0.23830613,-0.13086012,-0.8280191,3.5812502,-19.59375,-28.875002
1763129306942,-2.6243281,4.5595236,8.325228,-0.024587307,-0.06383537,-0.02535089,0.23769844,-0.13091174,-0.82827204,3.5812502,-19.59375,-28.875002
1763129306944,-2.676372,4.4727836,8.208578,-0.024587307,-0.06383537,-0.02535089,0.23769844,-0.13091174,-0.82827204,3.5812502,-19.59375,-28.875002
1763129306957,-2.676372,4.4727836,8.208578,-0.024587307,-0.06383537,-0.02535089,0.23769844,-0.13091174,-0.82827204,2.49375,-19.85625,-29.587502
1763129306960,-2.676372,4.4727836,8.208578,-0.033139415,-0.11499529,-0.033597562,0.23769844,-0.13091174,-0.82827204,2.49375,-19.85625,-29.587502
1763129306961,-2.676372,4.4727836,8.208578,-0.033139415,-0.11499529,-0.033597562,0.23663749,-0.13110705,-0.82869315,2.49375,-19.85625,-29.587502
1763129306962,-2.5663023,4.5284166,7.8406816,-0.033139415,-0.11499529,-0.033597562,0.23663749,-0.13110705,-0.82869315,2.49375,-19.85625,-29.587502
1763129306979,-2.5663023,4.5284166,7.8406816,-0.033139415,-0.11499529,-0.033597562,0.23663749,-0.13110705,-0.82869315,2.4750001,-19.85625,-29.1375
1763129306984,-2.5663023,4.5284166,7.8406816,-0.033139415,-0.11499529,-0.033597562,0.23457606,-0.13054614,-0.8296011,2.4750001,-19.85625,-29.1375
1763129306985,-2.5663023,4.5284166,7.8406816,-0.1432478,-0.18066326,-0.09025527,0.23457606,-0.13054614,-0.8296011,2.4750001,-19.85625,-29.1375
1763129306986,-2.43709,4.6564326,7.658229,-0.1432478,-0.18066326,-0.09025527,0.23457606,-0.13054614,-0.8296011,2.4750001,-19.85625,-29.1375
1763129306997,-2.43709,4.6564326,7.658229,-0.1432478,-0.18066326,-0.09025527,0.23457606,-0.13054614,-0.8296011,2.98125,-17.325,-30.112501
1763129307002,-2.3389843,4.679165,7.6917286,-0.1432478,-0.18066326,-0.09025527,0.23457606,-0.13054614,-0.8296011,2.98125,-17.325,-30.112501
1763129307003,-2.3389843,4.679165,7.6917286,-0.1432478,-0.18066326,-0.09025527,0.23132625,-0.1292261,-0.83129734,2.98125,-17.325,-30.112501
1763129307004,-2.3389843,4.679165,7.6917286,-0.25717407,-0.27091852,-0.19272783,0.23132625,-0.1292261,-0.83129734,2.98125,-17.325,-30.112501
1763129307018,-2.3389843,4.679165,7.6917286,-0.25717407,-0.27091852,-0.19272783,0.23132625,-0.1292261,-0.83129734,2.8125,-18.0,-28.312502
1763129307024,-2.3389843,4.679165,7.6917286,-0.25717407,-0.27091852,-0.19272783,0.2271123,-0.12774676,-0.83363336,2.8125,-18.0,-28.312502
1763129307025,-2.4071796,4.4524446,7.9507513,-0.25717407,-0.27091852,-0.19272783,0.2271123,-0.12774676,-0.83363336,2.8125,-18.0,-28.312502
1763129307026,-2.4071796,4.4524446,7.9507513,-0.30970845,-0.36178467,-0.2689332,0.2271123,-0.12774676,-0.83363336,2.8125,-18.0,-28.312502
1763129307038,-2.4071796,4.4524446,7.9507513,-0.30970845,-0.36178467,-0.2689332,0.2271123,-0.12774676,-0.83363336,2.8125,-18.0,-29.062502
1763129307044,-2.4071796,4.4524446,7.9507513,-0.30314165,-0.43233955,-0.2706131,0.2271123,-0.12774676,-0.83363336,2.8125,-18.0,-29.062502
1763129307045,-2.4071796,4.4524446,7.9507513,-0.30314165,-0.43233955,-0.2706131,0.222271,-0.12665686,-0.8362057,2.8125,-18.0,-29.062502
1763129307046,-2.4951158,4.2335014,8.103892,-0.30314165,-0.43233955,-0.2706131,0.222271,-0.12665686,-0.8362057,2.8125,-18.0,-29.062502
1763129307059,-2.4951158,4.2335014,8.103892,-0.30314165,-0.43233955,-0.2706131,0.222271,-0.12665686,-0.8362057,2.9250002,-17.175001,-27.750002
1763129307066,-2.4951158,4.2335014,8.103892,-0.29626942,-0.48777553,-0.25671592,0.222271,-0.12665686,-0.8362057,2.9250002,-17.175001,-27.750002
1763129307067,-2.3605196,4.2352962,8.142178,-0.29626942,-0.48777553,-0.25671592,0.222271,-0.12665686,-0.8362057,2.9250002,-17.175001,-27.750002
1763129307081,-2.3605196,4.2352962,8.142178,-0.29626942,-0.48777553,-0.25671592,0.21694137,-0.1259036,-0.83885354,2.9250002,-17.175001,-27.750002
1763129307082,-2.3605196,4.2352962,8.142178,-0.29626942,-0.48777553,-0.25671592,0.21694137,-0.1259036,-0.83885354,0.8625,-19.40625,-27.900002
1763129307088,-2.3605196,4.2352962,8.142178,-0.32895067,-0.5731439,-0.29061893,0.21694137,-0.1259036,-0.83885354,0.8625,-19.40625,-27.900002
1763129307088,-2.108675,4.3633122,8.005188,-0.32895067,-0.5731439,-0.29061893,0.21694137,-0.1259036,-0.83885354,0.8625,-19.40625,-27.900002
1763129307097,-2.108675,4.3633122,8.005188,-0.32895067,-0.5731439,-0.29061893,0.2107292,-0.12523171,-0.8418519,0.8625,-19.40625,-27.900002
1763129307098,-2.108675,4.3633122,8.005188,-0.32895067,-0.5731439,-0.29061893,0.2107292,-0.12523171,-0.8418519,0.91875005,-18.112501,-28.837502
1763129307108,-2.108675,4.3633122,8.005188,-0.38011062,-0.6840158,-0.4017963,0.2107292,-0.12523171,-0.8418519,0.91875005,-18.112501,-28.837502
1763129307109,-1.9537396,4.506881,8.2678,-0.38011062,-0.6840158,-0.4017963,0.2107292,-0.12523171,-0.8418519,0.91875005,-18.112501,-28.837502
1763129307117,-1.9537396,4.506881,8.2678,-0.38011062,-0.6840158,-0.4017963,0.2107292,-0.12523171,-0.8418519,-1.6500001,-19.81875,-26.118752
1763129307130,-1.9537396,4.506881,8.2678,-0.4865538,-0.7686206,-0.5345067,0.2107292,-0.12523171,-0.8418519,-1.6500001,-19.81875,-26.118752
1763129307131,-2.0739791,4.1551366,8.38804,-0.4865538,-0.7686206,-0.5345067,0.2107292,-0.12523171,-0.8418519,-1.6500001,-19.81875,-26.118752
1763129307138,-2.0739791,4.1551366,8.38804,-0.4865538,-0.7686206,-0.5345067,0.2107292,-0.12523171,-0.8418519,0.13125001,-18.7875,-29.343752
1763129307139,-2.0739791,4.1551366,8.38804,-0.4865538,-0.7686206,-0.5345067,0.20429024,-0.12463955,-0.8439729,0.13125001,-18.7875,-29.343752
1763129307139,-2.0739791,4.1551366,8.38804,-0.4865538,-0.7686206,-0.5345067,0.19670355,-0.123510346,-0.8468074,0.13125001,-18.7875,-29.343752
1763129307150,-2.0739791,4.1551366,8.38804,-0.6815724,-0.8610139,-0.5264127,0.19670355,-0.123510346,-0.8468074,0.13125001,-18.7875,-29.343752
1763129307151,-2.2671995,3.6771703,8.385647,-0.6815724,-0.8610139,-0.5264127,0.19670355,-0.123510346,-0.8468074,0.13125001,-18.7875,-29.343752
1763129307158,-2.2671995,3.6771703,8.385647,-0.6815724,-0.8610139,-0.5264127,0.19670355,-0.123510346,-0.8468074,-2.8125,-18.018751,-27.843752
1763129307159,-2.2671995,3.6771703,8.385647,-0.6815724,-0.8610139,-0.5264127,0.18735842,-0.12073301,-0.85029054,-2.8125,-18.018751,-27.843752
1763129307171,-2.2671995,3.6771703,8.385647,-0.8203914,-1.0036508,-0.37690356,0.18735842,-0.12073301,-0.85029054,-2.8125,-18.018751,-27.843752
1763129307172,-2.1308086,3.3338,8.842676,-0.8203914,-1.0036508,-0.37690356,0.18735842,-0.12073301,-0.85029054,-2.8125,-18.018751,-27.843752
1763129307178,-2.1308086,3.3338,8.842676,-0.8203914,-1.0036508,-0.37690356,0.17607945,-0.11711222,-0.8536066,-2.8125,-18.018751,-27.843752
1763129307179,-2.1308086,3.3338,8.842676,-0.8203914,-1.0036508,-0.37690356,0.17607945,-0.11711222,-0.8536066,0.31875002,-15.356251,-28.087502
1763129307192,-2.1308086,3.3338,8.842676,-0.8081741,-1.0085378,-0.26572618,0.17607945,-0.11711222,-0.8536066,0.31875002,-15.356251,-28.087502
1763129307193,-1.7551354,3.306881,9.5964155,-0.8081741,-1.0085378,-0.26572618,0.17607945,-0.11711222,-0.8536066,0.31875002,-15.356251,-28.087502
1763129307197,-1.7551354,3.306881,9.5964155,-0.8081741,-1.0085378,-0.26572618,0.16411187,-0.11374302,-0.85714644,0.31875002,-15.356251,-28.087502
1763129307198,-1.7551354,3.306881,9.5964155,-0.8081741,-1.0085378,-0.26572618,0.16411187,-0.11374302,-0.85714644,-2.9250002,-17.400002,-27.6
1763129307213,-1.7551354,3.306881,9.5964155,-0.67714363,-0.8164208,-0.29016078,0.16411187,-0.11374302,-0.85714644,-2.9250002,-17.400002,-27.6
1763129307214,-1.4129617,3.3966117,9.794421,-0.67714363,-0.8164208,-0.29016078,0.16411187,-0.11374302,-0.85714644,-2.9250002,-17.400002,-27.6
1763129307219,-1.4129617,3.3966117,9.794421,-0.67714363,-0.8164208,-0.29016078,0.16411187,-0.11374302,-0.85714644,-3.6562502,-16.9125,-26.268751
1763129307234,-1.4129617,3.3966117,9.794421,-0.55115277,-0.6591231,-0.36743516,0.16411187,-0.11374302,-0.85714644,-3.6562502,-16.9125,-26.268751
1763129307235,-1.3734802,3.214159,9.483355,-0.55115277,-0.6591231,-0.36743516,0.16411187,-0.11374302,-0.85714644,-3.6562502,-16.9125,-26.268751
1763129307238,-1.3734802,3.214159,9.483355,-0.55115277,-0.6591231,-0.36743516,0.16411187,-0.11374302,-0.85714644,-3.24375,-15.543751,-27.112501
1763129307239,-1.3734802,3.214159,9.483355,-0.55115277,-0.6591231,-0.36743516,0.15372306,-0.111175194,-0.8607936,-3.24375,-15.543751,-27.112501
1763129307240,-1.3734802,3.214159,9.483355,-0.55115277,-0.6591231,-0.36743516,0.14541534,-0.10889629,-0.8643151,-3.24375,-15.543751,-27.112501
1763129307255,-1.3734802,3.214159,9.483355,-0.44165525,-0.66126114,-0.38163778,0.14541534,-0.10889629,-0.8643151,-3.24375,-15.543751,-27.112501
1763129307255,-1.4291133,3.1375887,9.342776,-0.44165525,-0.66126114,-0.38163778,0.14541534,-0.10889629,-0.8643151,-3.24375,-15.543751,-27.112501
1763129307258,-1.4291133,3.1375887,9.342776,-0.44165525,-0.66126114,-0.38163778,0.13767008,-0.1075685,-0.8676634,-3.24375,-15.543751,-27.112501
1763129307259,-1.4291133,3.1375887,9.342776,-0.44165525,-0.66126114,-0.38163778,0.13767008,-0.1075685,-0.8676634,-4.4437504,-15.975,-26.75625
1763129307276,-1.4291133,3.1375887,9.342776,-0.3074177,-0.6856957,-0.36453354,0.13767008,-0.1075685,-0.8676634,-4.4437504,-15.975,-26.75625
1763129307277,-1.3561323,2.9623144,9.440284,-0.3074177,-0.6856957,-0.36453354,0.13767008,-0.1075685,-0.8676634,-4.4437504,-15.975,-26.75625
1763129307278,-1.3561323,2.9623144,9.440284,-0.3074177,-0.6856957,-0.36453354,0.13038884,-0.107568644,-0.8706805,-4.4437504,-15.975,-26.75625
1763129307278,-1.3561323,2.9623144,9.440284,-0.3074177,-0.6856957,-0.36453354,0.13038884,-0.107568644,-0.8706805,-6.0750003,-17.1375,-25.10625
1763129307298,-1.3561323,2.9623144,9.440284,-0.15057817,-0.64400417,-0.33444846,0.13038884,-0.107568644,-0.8706805,-6.0750003,-17.1375,-25.10625
1763129307299,-1.3561323,2.9623144,9.440284,-0.15057817,-0.64400417,-0.33444846,0.1241845,-0.10881056,-0.87331086,-6.0750003,-17.1375,-25.10625
1763129307300,-1.3561323,2.9623144,9.440284,-0.15057817,-0.64400417,-0.33444846,0.1241845,-0.10881056,-0.87331086,-6.39375,-17.25,-28.500002
1763129307301,-1.2430713,2.885744,9.610772,-0.15057817,-0.64400417,-0.33444846,0.1241845,-0.10881056,-0.87331086,-6.39375,-17.25,-28.500002
1763129307318,-1.0175478,2.9467611,9.432507,-0.15057817,-0.64400417,-0.33444846,0.1241845,-0.10881056,-0.87331086,-6.39375,-17.25,-28.500002
1763129307319,-1.0175478,2.9467611,9.432507,-0.04046979,-0.52992517,-0.3329213,0.1241845,-0.10881056,-0.87331086,-6.39375,-17.25,-28.500002
1763129307320,-1.0175478,2.9467611,9.432507,-0.04046979,-0.52992517,-0.3329213,0.11951582,-0.11050448,-0.87566316,-6.39375,-17.25,-28.500002
1763129307321,-1.0175478,2.9467611,9.432507,-0.04046979,-0.52992517,-0.3329213,0.11951582,-0.11050448,-0.87566316,-5.925,-16.462502,-24.6375
1763129307338,-1.0175478,2.9467611,9.432507,-0.04046979,-0.52992517,-0.3329213,0.11951582,-0.11050448,-0.87566316,-8.19375,-18.768751,-27.112501
1763129307339,-1.0175478,2.9467611,9.432507,-0.04046979,-0.52992517,-0.3329213,0.11522625,-0.112053916,-0.8780211,-8.19375,-18.768751,-27.112501
1763129307340,-0.9056834,2.925824,9.09153,-0.04046979,-0.52992517,-0.3329213,0.11522625,-0.112053916,-0.8780211,-8.19375,-18.768751,-27.112501
1763129307341,-0.9056834,2.925824,9.09153,-0.03695732,-0.49174616,-0.35689774,0.11522625,-0.112053916,-0.8780211,-8.19375,-18.768751,-27.112501
1763129307357,-0.9056834,2.925824,9.09153,-0.03695732,-0.49174616,-0.35689774,0.11522625,-0.112053916,-0.8780211,-5.34375,-16.0125,-26.1
1763129307359,-0.9056834,2.925824,9.09153,-0.114689864,-0.47739083,-0.33735007,0.11522625,-0.112053916,-0.8780211,-5.34375,-16.0125,-26.1
1763129307360,-0.9056834,2.925824,9.09153,-0.114689864,-0.47739083,-0.33735007,0.11069575,-0.1128549,-0.88028497,-5.34375,-16.0125,-26.1
1763129307362,-1.0444671,2.6955147,9.172287,-0.114689864,-0.47739083,-0.33735007,0.11069575,-0.1128549,-0.88028497,-5.34375,-16.0125,-26.1
1763129307378,-1.0444671,2.6955147,9.172287,-0.114689864,-0.47739083,-0.33735007,0.11069575,-0.1128549,-0.88028497,-7.6312504,-16.85625,-25.800001
1763129307381,-1.0444671,2.6955147,9.172287,-0.114689864,-0.47739083,-0.33735007,0.10608961,-0.112801194,-0.88220215,-7.6312504,-16.85625,-25.800001
1763129307382,-1.0444671,2.6955147,9.172287,-0.19013166,-0.43829548,-0.25518876,0.10608961,-0.112801194,-0.88220215,-7.6312504,-16.85625,-25.800001
1763129307383,-1.0444671,2.5698915,9.302098,-0.19013166,-0.43829548,-0.25518876,0.10608961,-0.112801194,-0.88220215,-7.6312504,-16.85625,-25.800001
1763129307398,-1.0444671,2.5698915,9.302098,-0.19013166,-0.43829548,-0.25518876,0.10608961,-0.112801194,-0.88220215,-10.05,-19.35,-25.087502
1763129307401,-1.0444671,2.5698915,9.302098,-0.19013166,-0.43829548,-0.25518876,0.1017705,-0.11238286,-0.88374394,-10.05,-19.35,-25.087502
1763129307402,-0.9320044,2.6063821,9.531809,-0.19013166,-0.43829548,-0.25518876,0.1017705,-0.11238286,-0.88374394,-10.05,-19.35,-25.087502
1763129307403,-0.9320044,2.6063821,9.531809,-0.20952661,-0.38713557,-0.18188499,0.1017705,-0.11238286,-0.88374394,-10.05,-19.35,-25.087502
1763129307419,-0.9320044,2.6063821,9.531809,-0.20952661,-0.38713557,-0.18188499,0.1017705,-0.11238286,-0.88374394,-8.0625,-16.5,-26.625002
1763129307423,-0.9320044,2.6063821,9.531809,-0.20952661,-0.38713557,-0.18188499,0.09817031,-0.112254575,-0.88489234,-8.0625,-16.5,-26.625002
1763129307424,-0.9320044,2.6063821,9.531809,-0.15577053,-0.3271181,-0.12568542,0.09817031,-0.112254575,-0.88489234,-8.0625,-16.5,-26.625002
1763129307425,-0.92482597,2.487339,9.737592,-0.15577053,-0.3271181,-0.12568542,0.09817031,-0.112254575,-0.88489234,-8.0625,-16.5,-26.625002
1763129307438,-0.92482597,2.487339,9.737592,-0.15577053,-0.3271181,-0.12568542,0.09817031,-0.112254575,-0.88489234,-8.212501,-15.562501,-27.056252
1763129307443,-0.92482597,2.487339,9.737592,-0.15577053,-0.3271181,-0.12568542,0.09577979,-0.11283349,-0.88559616,-8.212501,-15.562501,-27.056252
1763129307444,-0.92482597,2.487339,9.737592,-0.041080657,-0.24404047,-0.06887501,0.09577979,-0.11283349,-0.88559616,-8.212501,-15.562501,-27.056252
1763129307445,-0.83748794,2.4921248,9.774082,-0.041080657,-0.24404047,-0.06887501,0.09577979,-0.11283349,-0.88559616,-8.212501,-15.562501,-27.056252
1763129307457,-0.83748794,2.4921248,9.774082,-0.041080657,-0.24404047,-0.06887501,0.09577979,-0.11283349,-0.88559616,-9.4125,-17.75625,-25.331251
1763129307465,-0.83748794,2.4921248,9.774082,0.07498365,-0.1565341,-0.055435978,0.09577979,-0.11283349,-0.88559616,-9.4125,-17.75625,-25.331251
1763129307466,-0.83748794,2.4921248,9.774082,0.07498365,-0.1565341,-0.055435978,0.094700806,-0.1141068,-0.8860271,-9.4125,-17.75625,-25.331251
1763129307467,-0.7543373,2.5986054,9.745368,0.07498365,-0.1565341,-0.055435978,0.094700806,-0.1141068,-0.8860271,-9.4125,-17.75625,-25.331251
1763129307479,-0.7543373,2.5986054,9.745368,0.07498365,-0.1565341,-0.055435978,0.094700806,-0.1141068,-0.8860271,-8.45625,-16.575,-25.95
1763129307486,-0.7543373,2.5986054,9.745368,0.1470657,-0.07238748,-0.031154104,0.094700806,-0.1141068,-0.8860271,-8.45625,-16.575,-25.95
1763129307487,-0.86141616,2.609373,9.628718,0.1470657,-0.07238748,-0.031154104,0.094700806,-0.1141068,-0.8860271,-8.45625,-16.575,-25.95
1763129307498,-0.86141616,2.609373,9.628718,0.1470657,-0.07238748,-0.031154104,0.094700806,-0.1141068,-0.8860271,-8.26875,-16.85625,-26.1375
1763129307499,-0.86141616,2.609373,9.628718,0.1470657,-0.07238748,-0.031154104,0.09470167,-0.11571095,-0.88616073,-8.26875,-16.85625,-26.1375
1763129307507,-0.8452646,2.6434708,9.527023,0.1470657,-0.07238748,-0.031154104,0.09470167,-0.11571095,-0.88616073,-8.26875,-16.85625,-26.1375
1763129307507,-0.8452646,2.6434708,9.527023,0.19226968,-0.032833982,0.050396346,0.09470167,-0.11571095,-0.88616073,-8.26875,-16.85625,-26.1375
1763129307517,-0.8452646,2.6434708,9.527023,0.19226968,-0.032833982,0.050396346,0.09521497,-0.117614545,-0.88579226,-8.26875,-16.85625,-26.1375
1763129307518,-0.8452646,2.6434708,9.527023,0.19226968,-0.032833982,0.050396346,0.09521497,-0.117614545,-0.88579226,-9.1875,-17.550001,-25.9125
1763129307527,-0.8452646,2.6434708,9.527023,0.19272783,0.007941242,0.09789108,0.09521497,-0.117614545,-0.88579226,-9.1875,-17.550001,-25.9125
1763129307528,-0.60777694,2.8444679,9.204591,0.19272783,0.007941242,0.09789108,0.09521497,-0.117614545,-0.88579226,-9.1875,-17.550001,-25.9125
1763129307538,-0.60777694,2.8444679,9.204591,0.19272783,0.007941242,0.09789108,0.09605293,-0.11938661,-0.8851541,-9.1875,-17.550001,-25.9125
1763129307539,-0.60777694,2.8444679,9.204591,0.19272783,0.007941242,0.09789108,0.09605293,-0.11938661,-0.8851541,-7.3500004,-15.50625,-25.9125
1763129307549,-0.60777694,2.8444679,9.204591,0.14844014,-0.054825112,0.08704823,0.09605293,-0.11938661,-0.8851541,-7.3500004,-15.50625,-25.9125
1763129307550,-0.44207397,3.0448668,9.108877,0.14844014,-0.054825112,0.08704823,0.09605293,-0.11938661,-0.8851541,-7.3500004,-15.50625,-25.9125
1763129307558,-0.44207397,3.0448668,9.108877,0.14844014,-0.054825112,0.08704823,0.09610876,-0.12110087,-0.88463634,-7.3500004,-15.50625,-25.9125
1763129307558,-0.44207397,3.0448668,9.108877,0.14844014,-0.054825112,0.08704823,0.09610876,-0.12110087,-0.88463634,-9.056251,-16.06875,-25.368752
1763129307570,-0.44207397,3.0448668,9.108877,0.09666935,-0.06093376,0.046731155,0.09610876,-0.12110087,-0.88463634,-9.056251,-16.06875,-25.368752
1763129307571,-0.4229314,3.132803,9.266804,0.09666935,-0.06093376,0.046731155,0.09610876,-0.12110087,-0.88463634,-9.056251,-16.06875,-25.368752
1763129307579,-0.4229314,3.132803,9.266804,0.09666935,-0.06093376,0.046731155,0.09591686,-0.122377306,-0.88433707,-9.056251,-16.06875,-25.368752
1763129307580,-0.4229314,3.132803,9.266804,0.09666935,-0.06093376,0.046731155,0.09591686,-0.122377306,-0.88433707,-8.26875,-15.39375,-25.462502
1763129307590,-0.4229314,3.132803,9.266804,0.0059559317,0.01924224,0.011759147,0.09591686,-0.122377306,-0.88433707,-8.26875,-15.39375,-25.462502
1763129307591,-0.5946164,3.0448668,9.060423,0.0059559317,0.01924224,0.011759147,0.09591686,-0.122377306,-0.88433707,-8.26875,-15.39375,-25.462502
1763129307597,-0.5946164,3.0448668,9.060423,0.0059559317,0.01924224,0.011759147,0.096092336,-0.122417405,-0.8842291,-8.26875,-15.39375,-25.462502
1763129307598,-0.5946164,3.0448668,9.060423,0.0059559317,0.01924224,0.011759147,0.096092336,-0.122417405,-0.8842291,-8.94375,-17.493752,-25.85625
1763129307611,-0.5946164,3.0448668,9.060423,-0.09224058,-0.037568185,0.03924806,0.096092336,-0.122417405,-0.8842291,-8.94375,-17.493752,-25.85625
1763129307612,-0.61914283,2.9563324,8.880363,-0.09224058,-0.037568185,0.03924806,0.096092336,-0.122417405,-0.8842291,-8.94375,-17.493752,-25.85625
1763129307617,-0.61914283,2.9563324,8.880363,-0.09224058,-0.037568185,0.03924806,0.0953081,-0.12180255,-0.8841359,-8.94375,-17.493752,-25.85625
1763129307618,-0.61914283,2.9563324,8.880363,-0.09224058,-0.037568185,0.03924806,0.0953081,-0.12180255,-0.8841359,-10.575001,-18.35625,-26.268751
1763129307633,-0.61914283,2.9563324,8.880363,-0.1375973,-0.11759147,0.042302385,0.0953081,-0.12180255,-0.8841359,-10.575001,-18.35625,-26.268751
1763129307634,-0.40797627,3.0502508,9.199805,-0.1375973,-0.11759147,0.042302385,0.0953081,-0.12180255,-0.8841359,-10.575001,-18.35625,-26.268751
1763129307637,-0.40797627,3.0502508,9.199805,-0.1375973,-0.11759147,0.042302385,0.09358235,-0.121129386,-0.8841517,-10.575001,-18.35625,-26.268751
1763129307638,-0.40797627,3.0502508,9.199805,-0.1375973,-0.11759147,0.042302385,0.09358235,-0.121129386,-0.8841517,-8.475,-16.425001,-26.156252
1763129307655,-0.40797627,3.0502508,9.199805,-0.102472566,-0.103236146,0.0067195124,0.09358235,-0.121129386,-0.8841517,-8.475,-16.425001,-26.156252
1763129307656,-0.38584265,3.0185459,9.412168,-0.102472566,-0.103236146,0.0067195124,0.09358235,-0.121129386,-0.8841517,-8.475,-16.425001,-26.156252
1763129307659,-0.38584265,3.0185459,9.412168,-0.102472566,-0.103236146,0.0067195124,0.09214041,-0.12071788,-0.8843127,-8.475,-16.425001,-26.156252
1763129307660,-0.38584265,3.0185459,9.412168,-0.102472566,-0.103236146,0.0067195124,0.09214041,-0.12071788,-0.8843127,-10.856251,-18.243752,-25.462502
1763129307674,-0.38584265,3.0185459,9.412168,-0.051923506,-0.020922119,-0.026572619,0.09214041,-0.12071788,-0.8843127,-10.856251,-18.243752,-25.462502
1763129307676,-0.47018966,2.9132617,9.399008,-0.051923506,-0.020922119,-0.026572619,0.09214041,-0.12071788,-0.8843127,-10.856251,-18.243752,-25.462502
1763129307678,-0.47018966,2.9132617,9.399008,-0.051923506,-0.020922119,-0.026572619,0.09171386,-0.12035363,-0.8845185,-10.856251,-18.243752,-25.462502
1763129307679,-0.47018966,2.9132617,9.399008,-0.051923506,-0.020922119,-0.026572619,0.09171386,-0.12035363,-0.8845185,-9.168751,-17.550001,-26.6625
1763129307696,-0.47018966,2.9132617,9.399008,-0.061239194,-0.0058032153,-0.023060145,0.09171386,-0.12035363,-0.8845185,-9.168751,-17.550001,-26.6625
1763129307697,-0.65682983,2.8462625,9.180662,-0.061239194,-0.0058032153,-0.023060145,0.09171386,-0.12035363,-0.8845185,-9.168751,-17.550001,-26.6625
1763129307698,-0.65682983,2.8462625,9.180662,-0.061239194,-0.0058032153,-0.023060145,0.09138892,-0.119808465,-0.88471556,-9.168751,-17.550001,-26.6625
1763129307700,-0.65682983,2.8462625,9.180662,-0.061239194,-0.0058032153,-0.023060145,0.09138892,-0.119808465,-0.88471556,-8.681251,-16.63125,-26.325
1763129307717,-0.65682983,2.8462625,9.180662,-0.11194097,-0.07299834,0.0044287695,0.09138892,-0.119808465,-0.88471556,-8.681251,-16.63125,-26.325
1763129307718,-0.65682983,2.8462625,9.180662,-0.11194097,-0.07299834,0.0044287695,0.09138892,-0.119808465,-0.88471556,-9.731251,-17.34375,-25.218752
1763129307719,-0.654437,2.830111,9.253643,-0.11194097,-0.07299834,0.0044287695,0.09138892,-0.119808465,-0.88471556,-9.731251,-17.34375,-25.218752
1763129307739,-0.654437,2.830111,9.253643,-0.13500112,-0.09224058,0.020922119,0.09138892,-0.119808465,-0.88471556,-9.731251,-17.34375,-25.218752
1763129307740,-0.654437,2.830111,9.253643,-0.13500112,-0.09224058,0.020922119,0.090511695,-0.11902553,-0.8845851,-9.731251,-17.34375,-25.218752
1763129307741,-0.654437,2.830111,9.253643,-0.13500112,-0.09224058,0.020922119,0.08933038,-0.118113756,-0.88443565,-9.731251,-17.34375,-25.218752
1763129307743,-0.654437,2.830111,9.253643,-0.13500112,-0.09224058,0.020922119,0.08933038,-0.118113756,-0.88443565,-7.6125,-15.4125,-26.175001
1763129307744,-0.509073,2.769094,9.408579,-0.13500112,-0.09224058,0.020922119,0.08933038,-0.118113756,-0.88443565,-7.6125,-15.4125,-26.175001
1763129307758,-0.509073,2.769094,9.408579,-0.11178826,-0.059253883,0.021074835,0.08933038,-0.118113756,-0.88443565,-7.6125,-15.4125,-26.175001
1763129307759,-0.509073,2.769094,9.408579,-0.11178826,-0.059253883,0.021074835,0.088177375,-0.11733193,-0.88462704,-7.6125,-15.4125,-26.175001
1763129307760,-0.509073,2.769094,9.408579,-0.11178826,-0.059253883,0.021074835,0.088177375,-0.11733193,-0.88462704,-9.7875,-17.7,-26.812502
1763129307761,-0.52163535,2.7218359,9.531809,-0.11178826,-0.059253883,0.021074835,0.088177375,-0.11733193,-0.88462704,-9.7875,-17.7,-26.812502
1763129307780,-0.52163535,2.7218359,9.531809,-0.11178826,-0.059253883,0.021074835,0.088177375,-0.11733193,-0.88462704,-9.337501,-16.612501,-26.362501
1763129307781,-0.52163535,2.7218359,9.531809,-0.083230324,0.00641408,0.031917684,0.088177375,-0.11733193,-0.88462704,-9.337501,-16.612501,-26.362501
1763129307782,-0.52163535,2.7218359,9.531809,-0.083230324,0.00641408,0.031917684,0.08768735,-0.11644395,-0.8848046,-9.337501,-16.612501,-26.362501
1763129307783,-0.6029913,2.6572297,9.421141,-0.083230324,0.00641408,0.031917684,0.08768735,-0.11644395,-0.8848046,-9.337501,-16.612501,-26.362501
1763129307797,-0.6029913,2.6572297,9.421141,-0.083230324,0.00641408,0.031917684,0.08768735,-0.11644395,-0.8848046,-6.6375003,-14.38125,-26.156252
1763129307800,-0.6029913,2.6572297,9.421141,-0.07437278,0.018936807,0.052076224,0.08768735,-0.11644395,-0.8848046,-6.6375003,-14.38125,-26.156252
1763129307801,-0.6029913,2.6572297,9.421141,-0.07437278,0.018936807,0.052076224,0.08747313,-0.11549526,-0.8847883,-6.6375003,-14.38125,-26.156252
1763129307802,-0.59700924,2.7218359,9.366704,-0.07437278,0.018936807,0.052076224,0.08747313,-0.11549526,-0.8847883,-6.6375003,-14.38125,-26.156252
1763129307818,-0.59700924,2.7218359,9.366704,-0.07437278,0.018936807,0.052076224,0.08747313,-0.11549526,-0.8847883,-8.175,-15.8625,-25.9125
1763129307822,-0.59700924,2.7218359,9.366704,-0.07437278,0.018936807,0.052076224,0.08737851,-0.114837445,-0.88451797,-8.175,-15.8625,-25.9125
1763129307823,-0.58504516,2.8055844,9.475577,-0.07437278,0.018936807,0.052076224,0.08737851,-0.114837445,-0.88451797,-8.175,-15.8625,-25.9125
1763129307825,-0.58504516,2.8055844,9.475577,-0.058490302,0.013286309,0.06062833,0.08737851,-0.114837445,-0.88451797,-8.175,-15.8625,-25.9125
1763129307838,-0.58504516,2.8055844,9.475577,-0.058490302,0.013286309,0.06062833,0.08737851,-0.114837445,-0.88451797,-9.712501,-17.362501,-27.337502
1763129307842,-0.4977071,2.7900312,9.646665,-0.058490302,0.013286309,0.06062833,0.08737851,-0.114837445,-0.88451797,-9.712501,-17.362501,-27.337502
1763129307843,-0.4977071,2.7900312,9.646665,-0.019853106,0.03573559,0.052076224,0.08737851,-0.114837445,-0.88451797,-9.712501,-17.362501,-27.337502
1763129307844,-0.4977071,2.7900312,9.646665,-0.019853106,0.03573559,0.052076224,0.08770301,-0.11451144,-0.88413244,-9.712501,-17.362501,-27.337502
1763129307857,-0.4977071,2.7900312,9.646665,-0.019853106,0.03573559,0.052076224,0.08770301,-0.11451144,-0.88413244,-8.15625,-15.88125,-27.2625
1763129307864,-0.54675996,2.7152555,9.52164,-0.019853106,0.03573559,0.052076224,0.08770301,-0.11451144,-0.88413244,-8.15625,-15.88125,-27.2625
1763129307865,-0.54675996,2.7152555,9.52164,-0.019853106,0.03573559,0.052076224,0.08827972,-0.1142432,-0.88396,-8.15625,-15.88125,-27.2625
1763129307866,-0.54675996,2.7152555,9.52164,0.004734202,0.082161315,0.054061532,0.08827972,-0.1142432,-0.88396,-8.15625,-15.88125,-27.2625
1763129307877,-0.54675996,2.7152555,9.52164,0.004734202,0.082161315,0.054061532,0.08827972,-0.1142432,-0.88396,-9.3,-16.78125,-26.906252
1763129307884,-0.54675996,2.7152555,9.52164,0.004734202,0.082161315,0.054061532,0.08858636,-0.11433864,-0.88367164,-9.3,-16.78125,-26.906252
1763129307885,-0.6412765,2.5842485,9.488738,0.004734202,0.082161315,0.054061532,0.08858636,-0.11433864,-0.88367164,-9.3,-16.78125,-26.906252
1763129307887,-0.6412765,2.5842485,9.488738,0.030695954,0.0377209,0.08093958,0.08858636,-0.11433864,-0.88367164,-9.3,-16.78125,-26.906252
1763129307898,-0.6412765,2.5842485,9.488738,0.030695954,0.0377209,0.08093958,0.08858636,-0.11433864,-0.88367164,-8.700001,-16.63125,-26.00625
1763129307906,-0.6412765,2.5842485,9.488738,0.058795735,0.08857539,0.103236146,0.08858636,-0.11433864,-0.88367164,-8.700001,-16.63125,-26.00625
1763129307906,-0.58683974,2.5806592,9.427721,0.058795735,0.08857539,0.103236146,0.08858636,-0.11433864,-0.88367164,-8.700001,-16.63125,-26.00625
1763129307918,-0.58683974,2.5806592,9.427721,0.058795735,0.08857539,0.103236146,0.08945892,-0.11425216,-0.8833942,-8.700001,-16.63125,-26.00625
1763129307919,-0.58683974,2.5806592,9.427721,0.058795735,0.08857539,0.103236146,0.08945892,-0.11425216,-0.8833942,-9.3,-16.78125,-26.456251
1763129307931,-0.58683974,2.5806592,9.427721,0.12324197,0.17318016,0.13500112,0.08945892,-0.11425216,-0.8833942,-9.3,-16.78125,-26.456251
1763129307932,-0.6257231,2.649453,9.180064,0.12324197,0.17318016,0.13500112,0.08945892,-0.11425216,-0.8833942,-9.3,-16.78125,-26.456251
1763129307938,-0.6257231,2.649453,9.180064,0.12324197,0.17318016,0.13500112,0.09121793,-0.11447895,-0.8829404,-9.3,-16.78125,-26.456251
1763129307938,-0.6257231,2.649453,9.180064,0.12324197,0.17318016,0.13500112,0.09121793,-0.11447895,-0.8829404,-8.0625,-16.63125,-25.218752
1763129307948,-0.6257231,2.649453,9.180064,0.38789913,0.262061,0.064140804,0.09121793,-0.11447895,-0.8829404,-8.0625,-16.63125,-25.218752
1763129307948,-0.47018966,2.9682965,9.399008,0.38789913,0.262061,0.064140804,0.09121793,-0.11447895,-0.8829404,-8.0625,-16.63125,-25.218752
1763129307957,-0.47018966,2.9682965,9.399008,0.38789913,0.262061,0.064140804,0.09521692,-0.11673822,-0.8822449,-8.0625,-16.63125,-25.218752
1763129307958,-0.47018966,2.9682965,9.399008,0.38789913,0.262061,0.064140804,0.09521692,-0.11673822,-0.8822449,-8.887501,-15.543751,-25.29375
1763129307969,-0.47018966,2.9682965,9.399008,0.46532625,0.09682207,0.029626941,0.09521692,-0.11673822,-0.8822449,-8.887501,-15.543751,-25.29375
1763129307969,-0.50129634,3.2398818,8.770891,0.46532625,0.09682207,0.029626941,0.09521692,-0.11673822,-0.8822449,-8.887501,-15.543751,-25.29375
1763129307980,-0.50129634,3.2398818,8.770891,0.46532625,0.09682207,0.029626941,0.09791508,-0.120825075,-0.8816983,-8.887501,-15.543751,-25.29375
1763129307980,-0.50129634,3.2398818,8.770891,0.46532625,0.09682207,0.029626941,0.09791508,-0.120825075,-0.8816983,-8.64375,-18.54375,-25.500002
1763129307990,-0.50129634,3.2398818,8.770891,0.14676027,-0.10766492,0.026267186,0.09791508,-0.120825075,-0.8816983,-8.64375,-18.54375,-25.500002
1763129307991,-0.5138587,3.074179,8.293523,0.14676027,-0.10766492,0.026267186,0.09791508,-0.120825075,-0.8816983,-8.64375,-18.54375,-25.500002
1763129307998,-0.5138587,3.074179,8.293523,0.14676027,-0.10766492,0.026267186,0.09797234,-0.12325007,-0.88065517,-8.64375,-18.54375,-25.500002
1763129307999,-0.5138587,3.074179,8.293523,0.14676027,-0.10766492,0.026267186,0.09797234,-0.12325007,-0.88065517,-8.981251,-18.13125,-24.937502
1763129308023,-0.5138587,3.074179,8.293523,-0.28787002,-0.16478078,0.093615025,0.09797234,-0.12325007,-0.88065517,-8.981251,-18.13125,-24.937502
1763129308024,-0.6257231,2.8486555,8.612367,-0.28787002,-0.16478078,0.093615025,0.09797234,-0.12325007,-0.88065517,-8.981251,-18.13125,-24.937502
1763129308025,-0.6257231,2.8486555,8.612367,-0.28787002,-0.16478078,0.093615025,0.09557489,-0.12193539,-0.8797044,-8.981251,-18.13125,-24.937502
1763129308026,-0.6257231,2.8486555,8.612367,-0.28787002,-0.16478078,0.093615025,0.09557489,-0.12193539,-0.8797044,-8.34375,-18.0,-25.556252
