timestamp,accX,accY,accZ,gyroX,gyroY,gyroZ,rotX,rotY,rotZ,magX,magY,magZ
1763129270813,-4.423731,7.757531,4.4662037,-0.04657844,-1.1035272,0.5041162,0.43629575,-0.2534691,-0.6719718,11.56875,-31.743752,-26.98125
1763129270813,-3.0388846,8.499306,4.0965123,-0.04657844,-1.1035272,0.5041162,0.43629575,-0.2534691,-0.6719718,11.56875,-31.743752,-26.98125
1763129270819,-3.0388846,8.499306,4.0965123,-0.04657844,-1.1035272,0.5041162,0.4272543,-0.26129934,-0.674075,11.56875,-31.743752,-26.98125
1763129270819,-3.0388846,8.499306,4.0965123,-0.04657844,-1.1035272,0.5041162,0.4272543,-0.26129934,-0.674075,8.493751,-30.487501,-23.0625
1763129270834,-3.0388846,8.499306,4.0965123,-0.29092434,-1.1120794,0.3006982,0.4272543,-0.26129934,-0.674075,8.493751,-30.487501,-23.0625
1763129270835,-2.1858435,8.766106,4.6438704,-0.29092434,-1.1120794,0.3006982,0.4272543,-0.26129934,-0.674075,8.493751,-30.487501,-23.0625
1763129270838,-2.1858435,8.766106,4.6438704,-0.29092434,-1.1120794,0.3006982,0.4272543,-0.26129934,-0.674075,11.475,-27.4125,-26.025002
1763129270839,-2.1858435,8.766106,4.6438704,-0.29092434,-1.1120794,0.3006982,0.41746542,-0.26642466,-0.6772431,11.475,-27.4125,-26.025002
1763129270855,-2.1858435,8.766106,4.6438704,-0.62735814,-0.8162681,0.126449,0.41746542,-0.26642466,-0.6772431,11.475,-27.4125,-26.025002
1763129270856,-2.1906292,8.206185,6.235696,-0.62735814,-0.8162681,0.126449,0.41746542,-0.26642466,-0.6772431,11.475,-27.4125,-26.025002
1763129270858,-2.1906292,8.206185,6.235696,-0.62735814,-0.8162681,0.126449,0.4080651,-0.26692787,-0.6810879,11.475,-27.4125,-26.025002
1763129270858,-2.1906292,8.206185,6.235696,-0.62735814,-0.8162681,0.126449,0.4080651,-0.26692787,-0.6810879,9.168751,-30.375002,-26.23125
1763129270875,-2.1906292,8.206185,6.235696,-0.5760455,-0.38713557,0.123547405,0.4080651,-0.26692787,-0.6810879,9.168751,-30.375002,-26.23125
1763129270877,-2.3371894,7.9716887,6.983453,-0.5760455,-0.38713557,0.123547405,0.4080651,-0.26692787,-0.6810879,9.168751,-30.375002,-26.23125
1763129270878,-2.3371894,7.9716887,6.983453,-0.5760455,-0.38713557,0.123547405,0.40121764,-0.26589736,-0.6841603,9.168751,-30.375002,-26.23125
1763129270879,-2.3371894,7.9716887,6.983453,-0.5760455,-0.38713557,0.123547405,0.40121764,-0.26589736,-0.6841603,9.50625,-29.325,-27.000002
1763129270898,-2.3371894,7.9716887,6.983453,-0.5760455,-0.38713557,0.123547405,0.39779887,-0.26763552,-0.6860716,9.50625,-29.325,-27.000002
1763129270899,-2.3371894,7.9716887,6.983453,-0.0980438,-0.25320345,0.095142186,0.39779887,-0.26763552,-0.6860716,9.50625,-29.325,-27.000002
1763129270900,-2.4263222,7.96451,6.2321067,-0.0980438,-0.25320345,0.095142186,0.39779887,-0.26763552,-0.6860716,9.50625,-29.325,-27.000002
1763129270901,-2.4263222,7.96451,6.2321067,-0.0980438,-0.25320345,0.095142186,0.39779887,-0.26763552,-0.6860716,8.681251,-29.550001,-29.625002
1763129270918,-2.4263222,7.96451,6.2321067,-0.0980438,-0.25320345,0.095142186,0.39576033,-0.2736723,-0.68691254,8.681251,-29.550001,-29.625002
1763129270919,-2.4263222,7.96451,6.2321067,0.35766134,-0.45952302,0.12278382,0.39576033,-0.2736723,-0.68691254,8.681251,-29.550001,-29.625002
1763129270919,-2.4263222,7.96451,6.2321067,0.35766134,-0.45952302,0.12278382,0.39576033,-0.2736723,-0.68691254,10.81875,-28.556252,-29.250002
1763129270920,-2.5136602,8.263613,5.296513,0.35766134,-0.45952302,0.12278382,0.39576033,-0.2736723,-0.68691254,10.81875,-28.556252,-29.250002
1763129270938,-2.5136602,8.263613,5.296513,0.35766134,-0.45952302,0.12278382,0.39576033,-0.2736723,-0.68691254,10.78125,-29.19375,-27.581251
1763129270939,-2.5136602,8.263613,5.296513,0.51159924,-0.6253728,0.12049308,0.39576033,-0.2736723,-0.68691254,10.78125,-29.19375,-27.581251
1763129270940,-2.2528424,8.71466,4.8287163,0.51159924,-0.6253728,0.12049308,0.39576033,-0.2736723,-0.68691254,10.78125,-29.19375,-27.581251
1763129270941,-2.2528424,8.71466,4.8287163,0.51159924,-0.6253728,0.12049308,0.39388418,-0.28136942,-0.6872541,10.78125,-29.19375,-27.581251
1763129270957,-2.2528424,8.71466,4.8287163,0.51159924,-0.6253728,0.12049308,0.39388418,-0.28136942,-0.6872541,6.8812504,-31.218752,-26.681252
1763129270961,-2.2528424,8.71466,4.8287163,0.38133234,-0.5545125,0.01527162,0.39388418,-0.28136942,-0.6872541,6.8812504,-31.218752,-26.681252
1763129270962,-2.2528424,8.71466,4.8287163,0.38133234,-0.5545125,0.01527162,0.3923373,-0.2871085,-0.6877731,6.8812504,-31.218752,-26.681252
1763129270963,-1.9028922,8.722437,4.743771,0.38133234,-0.5545125,0.01527162,0.3923373,-0.2871085,-0.6877731,6.8812504,-31.218752,-26.681252
1763129270978,-1.9028922,8.722437,4.743771,0.38133234,-0.5545125,0.01527162,0.3923373,-0.2871085,-0.6877731,7.4625,-31.575,-27.468752
1763129270982,-1.9028922,8.722437,4.743771,0.38133234,-0.5545125,0.01527162,0.38798058,-0.29187414,-0.690579,7.4625,-31.575,-27.468752
1763129270983,-1.9028922,8.722437,4.743771,0.1262963,-0.7881683,-0.09911281,0.38798058,-0.29187414,-0.690579,7.4625,-31.575,-27.468752
1763129270984,-1.692922,8.385647,3.6323047,0.1262963,-0.7881683,-0.09911281,0.38798058,-0.29187414,-0.690579,7.4625,-31.575,-27.468752
1763129270998,-1.692922,8.385647,3.6323047,0.1262963,-0.7881683,-0.09911281,0.38798058,-0.29187414,-0.690579,8.400001,-30.900002,-29.19375
1763129271003,-1.692922,8.385647,3.6323047,-0.16523892,-0.85857046,-0.2196059,0.38798058,-0.29187414,-0.690579,8.400001,-30.900002,-29.19375
1763129271004,-2.0452652,8.105088,3.5240295,-0.16523892,-0.85857046,-0.2196059,0.38798058,-0.29187414,-0.690579,8.400001,-30.900002,-29.19375
1763129271005,-2.0452652,8.105088,3.5240295,-0.16523892,-0.85857046,-0.2196059,0.38226917,-0.29413086,-0.6945366,8.400001,-30.900002,-29.19375
1763129271017,-2.0452652,8.105088,3.5240295,-0.16523892,-0.85857046,-0.2196059,0.38226917,-0.29413086,-0.6945366,6.4687505,-30.862501,-29.625002
1763129271023,-2.0452652,8.105088,3.5240295,-0.16523892,-0.85857046,-0.2196059,0.37394005,-0.2953049,-0.6995343,6.4687505,-30.862501,-29.625002
1763129271024,-2.0452652,8.105088,3.5240295,-0.4338667,-1.005178,-0.17409647,0.37394005,-0.2953049,-0.6995343,6.4687505,-30.862501,-29.625002
1763129271025,-2.2235305,7.693523,3.9541395,-0.4338667,-1.005178,-0.17409647,0.37394005,-0.2953049,-0.6995343,6.4687505,-30.862501,-29.625002
1763129271038,-2.2235305,7.693523,3.9541395,-0.4338667,-1.005178,-0.17409647,0.37394005,-0.2953049,-0.6995343,7.33125,-30.656252,-29.118752
1763129271044,-2.239682,7.5230346,4.9609194,-0.4338667,-1.005178,-0.17409647,0.37394005,-0.2953049,-0.6995343,7.33125,-30.656252,-29.118752
1763129271044,-2.239682,7.5230346,4.9609194,-0.67454743,-1.028849,-0.047494736,0.37394005,-0.2953049,-0.6995343,7.33125,-30.656252,-29.118752
1763129271045,-2.239682,7.5230346,4.9609194,-0.67454743,-1.028849,-0.047494736,0.36347958,-0.29540762,-0.70490324,7.33125,-30.656252,-29.118752
1763129271058,-2.239682,7.5230346,4.9609194,-0.67454743,-1.028849,-0.047494736,0.36347958,-0.29540762,-0.70490324,4.05,-30.937502,-28.2
1763129271065,-2.239682,7.5230346,4.9609194,-0.730747,-0.8524618,0.04780017,0.36347958,-0.29540762,-0.70490324,4.05,-30.937502,-28.2
1763129271065,-1.8436699,7.6588273,5.849853,-0.730747,-0.8524618,0.04780017,0.36347958,-0.29540762,-0.70490324,4.05,-30.937502,-28.2
1763129271078,-1.8436699,7.6588273,5.849853,-0.730747,-0.8524618,0.04780017,0.3532571,-0.29468247,-0.7097454,4.05,-30.937502,-28.2
1763129271080,-1.8436699,7.6588273,5.849853,-0.730747,-0.8524618,0.04780017,0.3532571,-0.29468247,-0.7097454,-2.0062501,-30.35625,-22.725
1763129271087,-1.8436699,7.6588273,5.849853,-0.6250674,-0.6562215,0.018631376,0.3532571,-0.29468247,-0.7097454,-2.0062501,-30.35625,-22.725
1763129271088,-1.5918252,7.6917286,6.2488565,-0.6250674,-0.6562215,0.018631376,0.3532571,-0.29468247,-0.7097454,-2.0062501,-30.35625,-22.725
1763129271098,-1.5918252,7.6917286,6.2488565,-0.6250674,-0.6562215,0.018631376,0.34476775,-0.29376003,-0.71404254,-2.0062501,-30.35625,-22.725
1763129271098,-1.5918252,7.6917286,6.2488565,-0.6250674,-0.6562215,0.018631376,0.34476775,-0.29376003,-0.71404254,4.70625,-30.300001,-28.63125
1763129271107,-1.5918252,7.6917286,6.2488565,-0.44165525,-0.5183188,0.018936807,0.34476775,-0.29376003,-0.71404254,4.70625,-30.300001,-28.63125
1763129271108,-1.7982062,7.5068827,6.302695,-0.44165525,-0.5183188,0.018936807,0.34476775,-0.29376003,-0.71404254,4.70625,-30.300001,-28.63125
1763129271117,-1.7982062,7.5068827,6.302695,-0.44165525,-0.5183188,0.018936807,0.33815488,-0.29352605,-0.71739495,4.70625,-30.300001,-28.63125
1763129271118,-1.7982062,7.5068827,6.302695,-0.44165525,-0.5183188,0.018936807,0.33815488,-0.29352605,-0.71739495,4.74375,-29.643751,-29.400002
1763129271127,-1.7982062,7.5068827,6.302695,-0.27030766,-0.4969385,0.0820086,0.33815488,-0.29352605,-0.71739495,4.74375,-29.643751,-29.400002
1763129271128,-1.963311,7.4237323,6.0891356,-0.27030766,-0.4969385,0.0820086,0.33815488,-0.29352605,-0.71739495,4.74375,-29.643751,-29.400002
1763129271138,-1.963311,7.4237323,6.0891356,-0.27030766,-0.4969385,0.0820086,0.33248436,-0.29461583,-0.7197974,4.74375,-29.643751,-29.400002
1763129271138,-1.963311,7.4237323,6.0891356,-0.27030766,-0.4969385,0.0820086,0.33248436,-0.29461583,-0.7197974,4.7250004,-27.900002,-30.018751
1763129271149,-1.963311,7.4237323,6.0891356,-0.17180572,-0.48411033,0.13179408,0.33248436,-0.29461583,-0.7197974,4.7250004,-27.900002,-30.018751
1763129271150,-1.8293129,7.623533,6.0394845,-0.17180572,-0.48411033,0.13179408,0.33248436,-0.29461583,-0.7197974,4.7250004,-27.900002,-30.018751
1763129271158,-1.8293129,7.623533,6.0394845,-0.17180572,-0.48411033,0.13179408,0.32745472,-0.2964277,-0.7213891,4.7250004,-27.900002,-30.018751
1763129271160,-1.8293129,7.623533,6.0394845,-0.17180572,-0.48411033,0.13179408,0.32745472,-0.2964277,-0.7213891,4.2562504,-28.312502,-28.987501
1763129271170,-1.8293129,7.623533,6.0394845,-0.18555018,-0.41157013,0.10567961,0.32745472,-0.2964277,-0.7213891,4.2562504,-28.312502,-28.987501
1763129271171,-1.3746766,7.902895,5.8689957,-0.18555018,-0.41157013,0.10567961,0.32745472,-0.2964277,-0.7213891,4.2562504,-28.312502,-28.987501
1763129271179,-1.3746766,7.902895,5.8689957,-0.18555018,-0.41157013,0.10567961,0.3230616,-0.29759878,-0.722743,4.2562504,-28.312502,-28.987501
1763129271180,-1.3746766,7.902895,5.8689957,-0.18555018,-0.41157013,0.10567961,0.3230616,-0.29759878,-0.722743,3.0937502,-29.062502,-28.66875
1763129271191,-1.3746766,7.902895,5.8689957,-0.29107708,-0.3688096,0.03940078,0.3230616,-0.29759878,-0.722743,3.0937502,-29.062502,-28.66875
1763129271192,-1.2335001,7.830512,5.852844,-0.29107708,-0.3688096,0.03940078,0.3230616,-0.29759878,-0.722743,3.0937502,-29.062502,-28.66875
1763129271197,-1.2335001,7.830512,5.852844,-0.29107708,-0.3688096,0.03940078,0.31869248,-0.2975108,-0.7243834,3.0937502,-29.062502,-28.66875
1763129271198,-1.2335001,7.830512,5.852844,-0.29107708,-0.3688096,0.03940078,0.31869248,-0.2975108,-0.7243834,1.8000001,-30.6375,-26.6625
1763129271212,-1.2335001,7.830512,5.852844,-0.3336849,-0.3252855,0.023365578,0.31869248,-0.2975108,-0.7243834,1.8000001,-30.6375,-26.6625
1763129271213,-1.3130615,7.6630144,6.186643,-0.3336849,-0.3252855,0.023365578,0.31869248,-0.2975108,-0.7243834,1.8000001,-30.6375,-26.6625
1763129271218,-1.3130615,7.6630144,6.186643,-0.3336849,-0.3252855,0.023365578,0.3144571,-0.29681006,-0.72606194,1.8000001,-30.6375,-26.6625
1763129271219,-1.3130615,7.6630144,6.186643,-0.3336849,-0.3252855,0.023365578,0.3144571,-0.29681006,-0.72606194,2.9625,-28.143751,-29.268751
1763129271233,-1.3130615,7.6630144,6.186643,-0.23228133,-0.30757043,0.017409647,0.3144571,-0.29681006,-0.72606194,2.9625,-28.143751,-29.268751
1763129271234,-1.3698909,7.542177,6.4205413,-0.23228133,-0.30757043,0.017409647,0.3144571,-0.29681006,-0.72606194,2.9625,-28.143751,-29.268751
1763129271238,-1.3698909,7.542177,6.4205413,-0.23228133,-0.30757043,0.017409647,0.310802,-0.29680443,-0.7276168,2.9625,-28.143751,-29.268751
1763129271239,-1.3698909,7.542177,6.4205413,-0.23228133,-0.30757043,0.017409647,0.310802,-0.29680443,-0.7276168,1.7437501,-28.575,-28.143751
1763129271254,-1.3698909,7.542177,6.4205413,-0.024740024,-0.3431533,0.0051923506,0.310802,-0.29680443,-0.7276168,1.7437501,-28.575,-28.143751
1763129271255,-1.41356,7.5326056,6.390033,-0.024740024,-0.3431533,0.0051923506,0.310802,-0.29680443,-0.7276168,1.7437501,-28.575,-28.143751
1763129271259,-1.41356,7.5326056,6.390033,-0.024740024,-0.3431533,0.0051923506,0.30796787,-0.29857084,-0.7288799,1.7437501,-28.575,-28.143751
1763129271260,-1.41356,7.5326056,6.390033,-0.024740024,-0.3431533,0.0051923506,0.30796787,-0.29857084,-0.7288799,2.7375002,-29.2875,-27.50625
1763129271275,-1.41356,7.5326056,6.390033,0.11056653,-0.60979575,-6.108648E-4,0.30796787,-0.29857084,-0.7288799,2.7375002,-29.2875,-27.50625
1763129271275,-1.2550355,6.9044895,4.3609195,0.11056653,-0.60979575,-6.108648E-4,0.30796787,-0.29857084,-0.7288799,2.7375002,-29.2875,-27.50625
1763129271277,-1.2550355,6.9044895,4.3609195,0.11056653,-0.60979575,-6.108648E-4,0.30390188,-0.30280364,-0.7305705,2.7375002,-29.2875,-27.50625
1763129271278,-1.2550355,6.9044895,4.3609195,0.11056653,-0.60979575,-6.108648E-4,0.30390188,-0.30280364,-0.7305705,0.80625004,-29.906252,-28.06875
1763129271296,-1.2550355,6.9044895,4.3609195,-0.031917684,-1.747226,0.032070402,0.30390188,-0.30280364,-0.7305705,0.80625004,-29.906252,-28.06875
1763129271296,-1.6378871,7.3806615,3.2380872,-0.031917684,-1.747226,0.032070402,0.30390188,-0.30280364,-0.7305705,0.80625004,-29.906252,-28.06875
1763129271298,-1.6378871,7.3806615,3.2380872,-0.031917684,-1.747226,0.032070402,0.2908842,-0.31203648,-0.7350688,0.80625004,-29.906252,-28.06875
1763129271298,-1.6378871,7.3806615,3.2380872,-0.031917684,-1.747226,0.032070402,0.2908842,-0.31203648,-0.7350688,1.21875,-29.325,-28.237501
1763129271318,-1.6378871,7.3806615,3.2380872,-0.30604327,-2.636645,0.054825112,0.2908842,-0.31203648,-0.7350688,1.21875,-29.325,-28.237501
1763129271319,-1.6378871,7.3806615,3.2380872,-0.30604327,-2.636645,0.054825112,0.2701904,-0.32365665,-0.74162954,1.21875,-29.325,-28.237501
1763129271321,-1.6378871,7.3806615,3.2380872,-0.30604327,-2.636645,0.054825112,0.2701904,-0.32365665,-0.74162954,-2.0625,-29.456251,-28.725
1763129271322,-1.2951152,7.749156,2.8983064,-0.30604327,-2.636645,0.054825112,0.2701904,-0.32365665,-0.74162954,-2.0625,-29.456251,-28.725
1763129271340,-0.66699934,8.253444,6.641279,-0.30604327,-2.636645,0.054825112,0.2701904,-0.32365665,-0.74162954,-2.0625,-29.456251,-28.725
1763129271341,-0.66699934,8.253444,6.641279,-0.30604327,-2.636645,0.054825112,0.2483616,-0.3332843,-0.7484333,-2.0625,-29.456251,-28.725
1763129271342,-0.66699934,8.253444,6.641279,-0.5406153,-2.6647449,-0.0035124724,0.2483616,-0.3332843,-0.7484333,-2.0625,-29.456251,-28.725
1763129271346,-0.66699934,8.253444,6.641279,-0.5406153,-2.6647449,-0.0035124724,0.2483616,-0.3332843,-0.7484333,-2.0625,-29.456251,-28.725
1763129271357,-0.66699934,8.253444,6.641279,-0.5406153,-2.6647449,-0.0035124724,0.2483616,-0.3332843,-0.7484333,-6.2812505,-30.431252,-27.45
1763129271358,-0.66699934,8.253444,6.641279,-0.30482152,-2.0511312,-0.13423753,0.2483616,-0.3332843,-0.7484333,-6.2812505,-30.431252,-27.45
1763129271359,-0.66699934,8.253444,6.641279,-0.30482152,-2.0511312,-0.13423753,0.23149659,-0.34139043,-0.7549384,-6.2812505,-30.431252,-27.45
1763129271363,0.8679964,7.312466,7.8023963,-0.30482152,-2.0511312,-0.13423753,0.23149659,-0.34139043,-0.7549384,-6.2812505,-30.431252,-27.45
1763129271378,0.8679964,7.312466,7.8023963,-0.30482152,-2.0511312,-0.13423753,0.23149659,-0.34139043,-0.7549384,-6.61875,-29.212502,-26.6625
1763129271381,0.8679964,7.312466,7.8023963,-0.018936807,-1.5563308,-0.2698495,0.23149659,-0.34139043,-0.7549384,-6.61875,-29.212502,-26.6625
1763129271382,0.8679964,7.312466,7.8023963,-0.018936807,-1.5563308,-0.2698495,0.21916158,-0.34911802,-0.7609898,-6.61875,-29.212502,-26.6625
1763129271383,1.0067801,6.792027,7.4333034,-0.018936807,-1.5563308,-0.2698495,0.21916158,-0.34911802,-0.7609898,-6.61875,-29.212502,-26.6625
1763129271398,1.0067801,6.792027,7.4333034,-0.018936807,-1.5563308,-0.2698495,0.21916158,-0.34911802,-0.7609898,-8.56875,-30.618752,-25.95
1763129271400,1.0067801,6.792027,7.4333034,-0.10445788,-1.1291835,-0.2112065,0.21916158,-0.34911802,-0.7609898,-8.56875,-30.618752,-25.95
1763129271401,1.0067801,6.792027,7.4333034,-0.10445788,-1.1291835,-0.2112065,0.20947458,-0.3539438,-0.7659203,-8.56875,-30.618752,-25.95
1763129271406,0.31944183,6.6771717,6.398408,-0.10445788,-1.1291835,-0.2112065,0.20947458,-0.3539438,-0.7659203,-8.56875,-30.618752,-25.95
1763129271419,0.31944183,6.6771717,6.398408,-0.10445788,-1.1291835,-0.2112065,0.20947458,-0.3539438,-0.7659203,-8.26875,-30.31875,-27.243752
1763129271422,0.31944183,6.6771717,6.398408,-0.3263545,-0.9315688,0.076358095,0.20947458,-0.3539438,-0.7659203,-8.26875,-30.31875,-27.243752
1763129271423,-0.1052842,7.024131,5.7696934,-0.3263545,-0.9315688,0.076358095,0.20947458,-0.3539438,-0.7659203,-8.26875,-30.31875,-27.243752
1763129271425,-0.1052842,7.024131,5.7696934,-0.3263545,-0.9315688,0.076358095,0.19985755,-0.3562896,-0.7689428,-8.26875,-30.31875,-27.243752
1763129271437,-0.1052842,7.024131,5.7696934,-0.3263545,-0.9315688,0.076358095,0.19985755,-0.3562896,-0.7689428,-8.64375,-29.587502,-26.493752
1763129271442,-0.1052842,7.024131,5.7696934,-0.6062833,-1.005178,0.25030184,0.19985755,-0.3562896,-0.7689428,-8.64375,-29.587502,-26.493752
1763129271443,-0.1052842,7.024131,5.7696934,-0.6062833,-1.005178,0.25030184,0.18820576,-0.35691357,-0.77148587,-8.64375,-29.587502,-26.493752
1763129271444,0.06580263,7.4333034,5.359923,-0.6062833,-1.005178,0.25030184,0.18820576,-0.35691357,-0.77148587,-8.64375,-29.587502,-26.493752
1763129271457,0.06580263,7.4333034,5.359923,-0.6062833,-1.005178,0.25030184,0.18820576,-0.35691357,-0.77148587,-8.1,-27.375002,-27.056252
1763129271464,0.06580263,7.4333034,5.359923,-0.6062833,-1.005178,0.25030184,0.17389905,-0.35475972,-0.77474594,-8.1,-27.375002,-27.056252
1763129271465,0.06580263,7.4333034,5.359923,-1.0134246,-1.0919209,0.3110829,0.17389905,-0.35475972,-0.77474594,-8.1,-27.375002,-27.056252
1763129271466,0.41814575,7.3172517,5.710471,-1.0134246,-1.0919209,0.3110829,0.17389905,-0.35475972,-0.77474594,-8.1,-27.375002,-27.056252
1763129271479,0.41814575,7.3172517,5.710471,-1.0134246,-1.0919209,0.3110829,0.17389905,-0.35475972,-0.77474594,-9.712501,-29.493752,-24.54375
1763129271487,0.41814575,7.3172517,5.710471,-1.0134246,-1.0919209,0.3110829,0.15864716,-0.34976467,-0.77841836,-9.712501,-29.493752,-24.54375
1763129271488,0.41814575,7.3172517,5.710471,-1.3009893,-0.9738712,0.3752237,0.15864716,-0.34976467,-0.77841836,-9.712501,-29.493752,-24.54375
1763129271490,1.2424731,6.9708905,7.5517483,-1.3009893,-0.9738712,0.3752237,0.15864716,-0.34976467,-0.77841836,-9.712501,-29.493752,-24.54375
1763129271498,1.2424731,6.9708905,7.5517483,-1.3009893,-0.9738712,0.3752237,0.15864716,-0.34976467,-0.77841836,-10.200001,-28.0125,-24.487501
1763129271506,1.2424731,6.9708905,7.5517483,-1.1837032,-0.4572323,0.34727663,0.15864716,-0.34976467,-0.77841836,-10.200001,-28.0125,-24.487501
1763129271507,1.9657038,6.6484575,9.462418,-1.1837032,-0.4572323,0.34727663,0.15864716,-0.34976467,-0.77841836,-10.200001,-28.0125,-24.487501
1763129271518,1.9657038,6.6484575,9.462418,-1.1837032,-0.4572323,0.34727663,0.14734983,-0.3430307,-0.7817569,-10.200001,-28.0125,-24.487501
1763129271519,1.9657038,6.6484575,9.462418,-1.1837032,-0.4572323,0.34727663,0.14734983,-0.3430307,-0.7817569,-11.15625,-26.643751,-27.093752
1763129271526,1.9657038,6.6484575,9.462418,-0.6221658,0.09376775,0.25427246,0.14734983,-0.3430307,-0.7817569,-11.15625,-26.643751,-27.093752
1763129271527,1.6301104,6.5551376,9.823135,-0.6221658,0.09376775,0.25427246,0.14734983,-0.3430307,-0.7817569,-11.15625,-26.643751,-27.093752
1763129271538,1.6301104,6.5551376,9.823135,-0.6221658,0.09376775,0.25427246,0.1428881,-0.3378916,-0.7836741,-11.15625,-26.643751,-27.093752
1763129271538,1.6301104,6.5551376,9.823135,-0.6221658,0.09376775,0.25427246,0.1428881,-0.3378916,-0.7836741,-10.743751,-26.868752,-26.475
1763129271548,1.6301104,6.5551376,9.823135,-0.00641408,0.32467464,0.21441354,0.1428881,-0.3378916,-0.7836741,-10.743751,-26.868752,-26.475
1763129271549,1.0259227,6.4923263,8.801998,-0.00641408,0.32467464,0.21441354,0.1428881,-0.3378916,-0.7836741,-10.743751,-26.868752,-26.475
1763129271557,1.0259227,6.4923263,8.801998,-0.00641408,0.32467464,0.21441354,0.14370427,-0.33644608,-0.7833602,-10.743751,-26.868752,-26.475
1763129271559,1.0259227,6.4923263,8.801998,-0.00641408,0.32467464,0.21441354,0.14370427,-0.33644608,-0.7833602,-10.762501,-26.868752,-25.406252
1763129271570,1.0259227,6.4923263,8.801998,0.32421649,0.28848088,0.19776747,0.14370427,-0.33644608,-0.7833602,-10.762501,-26.868752,-25.406252
1763129271571,0.7405786,6.6795645,7.3663044,0.32421649,0.28848088,0.19776747,0.14370427,-0.33644608,-0.7833602,-10.762501,-26.868752,-25.406252
1763129271579,0.7405786,6.6795645,7.3663044,0.32421649,0.28848088,0.19776747,0.14652848,-0.33780536,-0.78150105,-10.762501,-26.868752,-25.406252
1763129271581,0.7405786,6.6795645,7.3663044,0.32421649,0.28848088,0.19776747,0.14652848,-0.33780536,-0.78150105,-10.5,-26.812502,-27.16875
1763129271590,0.7405786,6.6795645,7.3663044,0.31734425,0.09224058,0.14737113,0.14652848,-0.33780536,-0.78150105,-10.5,-26.812502,-27.16875
1763129271591,0.7495517,6.832107,6.3714886,0.31734425,0.09224058,0.14737113,0.14652848,-0.33780536,-0.78150105,-10.5,-26.812502,-27.16875
1763129271598,0.7495517,6.832107,6.3714886,0.31734425,0.09224058,0.14737113,0.14850347,-0.3400618,-0.7794736,-10.5,-26.812502,-27.16875
1763129271599,0.7495517,6.832107,6.3714886,0.31734425,0.09224058,0.14737113,0.14850347,-0.3400618,-0.7794736,-12.187501,-27.375002,-27.056252
1763129271611,0.7495517,6.832107,6.3714886,0.09300416,-0.01847866,0.12889247,0.14850347,-0.3400618,-0.7794736,-12.187501,-27.375002,-27.056252
1763129271612,0.8530413,6.835696,6.076573,0.09300416,-0.01847866,0.12889247,0.14850347,-0.3400618,-0.7794736,-12.187501,-27.375002,-27.056252
1763129271618,0.8530413,6.835696,6.076573,0.09300416,-0.01847866,0.12889247,0.14882882,-0.3410729,-0.77800703,-12.187501,-27.375002,-27.056252
1763129271619,0.8530413,6.835696,6.076573,0.09300416,-0.01847866,0.12889247,0.14882882,-0.3410729,-0.77800703,-9.3,-26.38125,-27.075
1763129271632,0.8530413,6.835696,6.076573,-0.17791437,-0.022296565,0.13668099,0.14882882,-0.3410729,-0.77800703,-9.3,-26.38125,-27.075
1763129271633,0.9320044,6.6777697,6.250053,-0.17791437,-0.022296565,0.13668099,0.14882882,-0.3410729,-0.77800703,-9.3,-26.38125,-27.075
1763129271637,0.9320044,6.6777697,6.250053,-0.17791437,-0.022296565,0.13668099,0.1477346,-0.3399329,-0.777335,-9.3,-26.38125,-27.075
1763129271638,0.9320044,6.6777697,6.250053,-0.17791437,-0.022296565,0.13668099,0.1477346,-0.3399329,-0.777335,-12.075001,-28.275002,-24.675001
1763129271654,0.9302098,6.503692,6.782456,-0.17791437,-0.022296565,0.13668099,0.1477346,-0.3399329,-0.777335,-12.075001,-28.275002,-24.675001
1763129271656,0.9302098,6.503692,6.782456,-0.38744098,0.023823727,0.16676609,0.1477346,-0.3399329,-0.777335,-12.075001,-28.275002,-24.675001
1763129271659,0.9302098,6.503692,6.782456,-0.38744098,0.023823727,0.16676609,0.14568047,-0.33689132,-0.7772864,-12.075001,-28.275002,-24.675001
1763129271660,0.9302098,6.503692,6.782456,-0.38744098,0.023823727,0.16676609,0.14568047,-0.33689132,-0.7772864,-10.8,-26.7,-25.312502
1763129271674,0.9302098,6.503692,6.782456,-0.39492407,0.055588696,0.20051636,0.14568047,-0.33689132,-0.7772864,-10.8,-26.7,-25.312502
1763129271674,0.9954142,6.518049,7.2023964,-0.39492407,0.055588696,0.20051636,0.14568047,-0.33689132,-0.7772864,-10.8,-26.7,-25.312502
1763129271678,0.9954142,6.518049,7.2023964,-0.39492407,0.055588696,0.20051636,0.14352676,-0.33364177,-0.7772815,-10.8,-26.7,-25.312502
1763129271680,0.9954142,6.518049,7.2023964,-0.39492407,0.055588696,0.20051636,0.14352676,-0.33364177,-0.7772815,-11.64375,-27.712502,-26.04375
1763129271695,0.9954142,6.518049,7.2023964,-0.25763223,0.022601997,0.1867719,0.14352676,-0.33364177,-0.7772815,-11.64375,-27.712502,-26.04375
1763129271700,1.0875379,6.6203423,7.240681,-0.25763223,0.022601997,0.1867719,0.14352676,-0.33364177,-0.7772815,-11.64375,-27.712502,-26.04375
1763129271701,1.0875379,6.6203423,7.240681,-0.25763223,0.022601997,0.1867719,0.14177407,-0.3316597,-0.7770536,-11.64375,-27.712502,-26.04375
1763129271702,1.0875379,6.6203423,7.240681,-0.25763223,0.022601997,0.1867719,0.14177407,-0.3316597,-0.7770536,-12.356251,-28.837502,-26.118752
1763129271715,1.0875379,6.6203423,7.240681,-0.09850194,-0.048258316,0.10827578,0.14177407,-0.3316597,-0.7770536,-12.356251,-28.837502,-26.118752
1763129271717,1.2598212,6.727421,7.2646093,-0.09850194,-0.048258316,0.10827578,0.14177407,-0.3316597,-0.7770536,-12.356251,-28.837502,-26.118752
1763129271717,1.2598212,6.727421,7.2646093,-0.09850194,-0.048258316,0.10827578,0.14059061,-0.33125487,-0.7767604,-12.356251,-28.837502,-26.118752
1763129271719,1.2598212,6.727421,7.2646093,-0.09850194,-0.048258316,0.10827578,0.14059061,-0.33125487,-0.7767604,-11.775001,-26.94375,-25.5375
1763129271738,1.3226327,6.6406813,7.2011995,-0.09850194,-0.048258316,0.10827578,0.14059061,-0.33125487,-0.7767604,-11.775001,-26.94375,-25.5375
1763129271740,1.3226327,6.6406813,7.2011995,-0.09850194,-0.048258316,0.10827578,0.14059061,-0.33125487,-0.7767604,-12.900001,-27.187502,-25.050001
1763129271741,1.3226327,6.6406813,7.2011995,-0.022143848,-0.059559315,0.039858926,0.14059061,-0.33125487,-0.7767604,-12.900001,-27.187502,-25.050001
1763129271742,1.3226327,6.6406813,7.2011995,-0.022143848,-0.059559315,0.039858926,0.13994594,-0.33146533,-0.776575,-12.900001,-27.187502,-25.050001
1763129271758,1.2711871,6.5958157,7.1007013,-0.022143848,-0.059559315,0.039858926,0.13994594,-0.33146533,-0.776575,-12.900001,-27.187502,-25.050001
1763129271759,1.2711871,6.5958157,7.1007013,-0.022143848,-0.059559315,0.039858926,0.13962942,-0.3312108,-0.77662975,-12.900001,-27.187502,-25.050001
1763129271764,1.2711871,6.5958157,7.1007013,-0.044745844,-0.01527162,0.00320704,0.13962942,-0.3312108,-0.77662975,-12.900001,-27.187502,-25.050001
1763129271765,1.2711871,6.5958157,7.1007013,-0.044745844,-0.01527162,0.00320704,0.13962942,-0.3312108,-0.77662975,-10.837501,-26.550001,-24.45
1763129271778,1.2711871,6.5958157,7.1007013,-0.044745844,-0.01527162,0.00320704,0.13962942,-0.3312108,-0.77662975,-13.6125,-29.775002,-25.931252
1763129271779,1.2711871,6.5958157,7.1007013,-0.107817635,0.016493348,-0.008704823,0.13962942,-0.3312108,-0.77662975,-13.6125,-29.775002,-25.931252
1763129271780,1.2711871,6.5958157,7.1007013,-0.107817635,0.016493348,-0.008704823,0.1393124,-0.33024734,-0.7768762,-13.6125,-29.775002,-25.931252
1763129271781,1.1449656,6.5718875,6.9649086,-0.107817635,0.016493348,-0.008704823,0.1393124,-0.33024734,-0.7768762,-13.6125,-29.775002,-25.931252
1763129271797,1.1449656,6.5718875,6.9649086,-0.107817635,0.016493348,-0.008704823,0.1393124,-0.33024734,-0.7768762,-12.6,-27.300001,-26.587502
1763129271800,1.1449656,6.5718875,6.9649086,-0.14599667,-0.014508039,-0.009926553,0.1393124,-0.33024734,-0.7768762,-12.6,-27.300001,-26.587502
1763129271801,1.1449656,6.5718875,6.9649086,-0.14599667,-0.014508039,-0.009926553,0.13863376,-0.32912108,-0.77721083,-12.6,-27.300001,-26.587502
1763129271802,1.1180464,6.5437717,7.033104,-0.14599667,-0.014508039,-0.009926553,0.13863376,-0.32912108,-0.77721083,-12.6,-27.300001,-26.587502
1763129271818,1.1180464,6.5437717,7.033104,-0.14599667,-0.014508039,-0.009926553,0.13863376,-0.32912108,-0.77721083,-12.262501,-27.056252,-25.650002
1763129271821,1.1180464,6.5437717,7.033104,-0.09468404,-0.09987639,-0.0108428495,0.13863376,-0.32912108,-0.77721083,-12.262501,-27.056252,-25.650002
1763129271822,1.1180464,6.5437717,7.033104,-0.09468404,-0.09987639,-0.0108428495,0.13753234,-0.32886502,-0.77751994,-12.262501,-27.056252,-25.650002
1763129271824,1.1186446,6.5497537,7.262815,-0.09468404,-0.09987639,-0.0108428495,0.13753234,-0.32886502,-0.77751994,-12.262501,-27.056252,-25.650002
1763129271838,1.1186446,6.5497537,7.262815,-0.09468404,-0.09987639,-0.0108428495,0.13753234,-0.32886502,-0.77751994,-11.38125,-27.000002,-26.00625
1763129271841,1.1186446,6.5497537,7.262815,-0.0019853106,-0.109039366,-0.011453714,0.13753234,-0.32886502,-0.77751994,-11.38125,-27.000002,-26.00625
1763129271842,1.1186446,6.5497537,7.262815,-0.0019853106,-0.109039366,-0.011453714,0.13679701,-0.32940137,-0.77761906,-11.38125,-27.000002,-26.00625
1763129271843,1.189831,6.4271216,7.4620175,-0.0019853106,-0.109039366,-0.011453714,0.13679701,-0.32940137,-0.77761906,-11.38125,-27.000002,-26.00625
1763129271857,1.189831,6.4271216,7.4620175,-0.0019853106,-0.109039366,-0.011453714,0.13679701,-0.32940137,-0.77761906,-11.962501,-25.85625,-25.125002
1763129271863,1.2221341,6.477969,7.2676005,-0.0019853106,-0.109039366,-0.011453714,0.13679701,-0.32940137,-0.77761906,-11.962501,-25.85625,-25.125002
1763129271864,1.2221341,6.477969,7.2676005,0.049938194,-0.0632245,-0.02367101,0.13679701,-0.32940137,-0.77761906,-11.962501,-25.85625,-25.125002
1763129271866,1.2221341,6.477969,7.2676005,0.049938194,-0.0632245,-0.02367101,0.13661872,-0.33009648,-0.77771235,-11.962501,-25.85625,-25.125002
1763129271879,1.2221341,6.477969,7.2676005,0.049938194,-0.0632245,-0.02367101,0.13661872,-0.33009648,-0.77771235,-12.39375,-26.2875,-26.19375
1763129271883,1.2221341,6.477969,7.2676005,0.07666353,-0.074830934,-0.04367683,0.13661872,-0.33009648,-0.77771235,-12.39375,-26.2875,-26.19375
1763129271884,1.2221341,6.477969,7.2676005,0.07666353,-0.074830934,-0.04367683,0.13661899,-0.331058,-0.777746,-12.39375,-26.2875,-26.19375
1763129271886,1.189831,6.476773,7.119844,0.07666353,-0.074830934,-0.04367683,0.13661899,-0.331058,-0.777746,-12.39375,-26.2875,-26.19375
1763129271898,1.189831,6.476773,7.119844,0.07666353,-0.074830934,-0.04367683,0.13661899,-0.331058,-0.777746,-11.71875,-26.306252,-27.35625
1763129271905,1.189831,6.476773,7.119844,0.07666353,-0.074830934,-0.04367683,0.1365789,-0.33179334,-0.7777193,-11.71875,-26.306252,-27.35625
1763129271906,1.189831,6.476773,7.119844,0.053145237,-0.065667965,-0.03161225,0.1365789,-0.33179334,-0.7777193,-11.71875,-26.306252,-27.35625
1763129271907,1.1066805,6.431907,7.172486,0.053145237,-0.065667965,-0.03161225,0.1365789,-0.33179334,-0.7777193,-11.71875,-26.306252,-27.35625
1763129271918,1.1066805,6.431907,7.172486,0.053145237,-0.065667965,-0.03161225,0.1365789,-0.33179334,-0.7777193,-12.243751,-27.056252,-27.768751
1763129271925,1.1066805,6.431907,7.172486,-0.0129808765,-0.0051923506,-0.02535089,0.1365789,-0.33179334,-0.7777193,-12.243751,-27.056252,-27.768751
1763129271927,1.1294123,6.483353,7.031309,-0.0129808765,-0.0051923506,-0.02535089,0.1365789,-0.33179334,-0.7777193,-12.243751,-27.056252,-27.768751
1763129271939,1.1294123,6.483353,7.031309,-0.0129808765,-0.0051923506,-0.02535089,0.13664791,-0.3316512,-0.7778289,-12.243751,-27.056252,-27.768751
1763129271939,1.1294123,6.483353,7.031309,-0.0129808765,-0.0051923506,-0.02535089,0.13664791,-0.3316512,-0.7778289,-11.475,-27.993752,-25.48125
1763129271947,1.1294123,6.483353,7.031309,-0.07147118,-0.007941242,-0.032223117,0.13664791,-0.3316512,-0.7778289,-11.475,-27.993752,-25.48125
1763129271948,1.0851451,6.4683976,7.1066833,-0.07147118,-0.007941242,-0.032223117,0.13664791,-0.3316512,-0.7778289,-11.475,-27.993752,-25.48125
1763129271957,1.0851451,6.4683976,7.1066833,-0.07147118,-0.007941242,-0.032223117,0.13646321,-0.33105025,-0.7780915,-11.475,-27.993752,-25.48125
1763129271958,1.0851451,6.4683976,7.1066833,-0.07147118,-0.007941242,-0.032223117,0.13646321,-0.33105025,-0.7780915,-12.225,-27.206251,-26.5125
1763129271969,1.0755738,6.38764,7.225128,-0.07147118,-0.007941242,-0.032223117,0.13646321,-0.33105025,-0.7780915,-12.225,-27.206251,-26.5125
1763129271969,1.0755738,6.38764,7.225128,-0.08933897,0.0067195124,-0.013897174,0.13646321,-0.33105025,-0.7780915,-12.225,-27.206251,-26.5125
1763129271977,1.0755738,6.38764,7.225128,-0.08933897,0.0067195124,-0.013897174,0.13623261,-0.33023924,-0.7783148,-12.225,-27.206251,-26.5125
1763129271978,1.0755738,6.38764,7.225128,-0.08933897,0.0067195124,-0.013897174,0.13623261,-0.33023924,-0.7783148,-12.450001,-27.431252,-26.6625
1763129271989,1.0755738,6.38764,7.225128,-0.082924895,0.013133593,-0.0030543238,0.13623261,-0.33023924,-0.7783148,-12.450001,-27.431252,-26.6625
1763129271990,1.0396814,6.3792653,7.350751,-0.082924895,0.013133593,-0.0030543238,0.13623261,-0.33023924,-0.7783148,-12.450001,-27.431252,-26.6625
1763129271998,1.0396814,6.3792653,7.350751,-0.082924895,0.013133593,-0.0030543238,0.13599183,-0.32945356,-0.7785292,-12.450001,-27.431252,-26.6625
1763129271999,1.0396814,6.3792653,7.350751,-0.082924895,0.013133593,-0.0030543238,0.13599183,-0.32945356,-0.7785292,-12.3,-28.35,-25.931252
1763129272009,1.0396814,6.3792653,7.350751,-0.044134982,0.024281874,0.00641408,0.13599183,-0.32945356,-0.7785292,-12.3,-28.35,-25.931252
1763129272010,1.0588241,6.41097,7.3728848,-0.044134982,0.024281874,0.00641408,0.13599183,-0.32945356,-0.7785292,-12.3,-28.35,-25.931252
1763129272020,1.0588241,6.41097,7.3728848,-0.044134982,0.024281874,0.00641408,0.13599648,-0.3289257,-0.7785853,-12.3,-28.35,-25.931252
1763129272021,1.0588241,6.41097,7.3728848,-0.044134982,0.024281874,0.00641408,0.13599648,-0.3289257,-0.7785853,-12.450001,-27.4125,-25.9125
1763129272031,1.0588241,6.41097,7.3728848,-0.027947064,0.037568185,0.0013744457,0.13599648,-0.3289257,-0.7785853,-12.450001,-27.4125,-25.9125
1763129272032,1.041476,6.3343997,7.2580295,-0.027947064,0.037568185,0.0013744457,0.13599648,-0.3289257,-0.7785853,-12.450001,-27.4125,-25.9125
1763129272038,1.041476,6.3343997,7.2580295,-0.027947064,0.037568185,0.0013744457,0.1362139,-0.3284555,-0.7785886,-12.450001,-27.4125,-25.9125
1763129272040,1.041476,6.3343997,7.2580295,-0.027947064,0.037568185,0.0013744457,0.1362139,-0.3284555,-0.7785886,-10.556251,-26.643751,-24.206251
1763129272052,1.041476,6.3343997,7.2580295,-0.021838415,0.02535089,0.019394957,0.1362139,-0.3284555,-0.7785886,-10.556251,-26.643751,-24.206251
1763129272053,1.0259227,6.3696938,7.2083783,-0.021838415,0.02535089,0.019394957,0.1362139,-0.3284555,-0.7785886,-10.556251,-26.643751,-24.206251
1763129272057,1.0259227,6.3696938,7.2083783,-0.021838415,0.02535089,0.019394957,0.136313,-0.32812884,-0.7784748,-10.556251,-26.643751,-24.206251
1763129272059,1.0259227,6.3696938,7.2083783,-0.021838415,0.02535089,0.019394957,0.136313,-0.32812884,-0.7784748,-11.94375,-27.31875,-27.300001
1763129272073,1.0259227,6.3696938,7.2083783,-0.005497783,0.012522728,0.01725693,0.136313,-0.32812884,-0.7784748,-11.94375,-27.31875,-27.300001
1763129272074,1.11685,6.4002023,7.199405,-0.005497783,0.012522728,0.01725693,0.136313,-0.32812884,-0.7784748,-11.94375,-27.31875,-27.300001
1763129272078,1.11685,6.4002023,7.199405,-0.005497783,0.012522728,0.01725693,0.136313,-0.32812884,-0.7784748,-10.931251,-25.781252,-25.743752
1763129272096,1.11685,6.4002023,7.199405,-0.0140498895,0.029016078,0.002290743,0.136313,-0.32812884,-0.7784748,-10.931251,-25.781252,-25.743752
1763129272097,1.198206,6.476773,7.047461,-0.0140498895,0.029016078,0.002290743,0.136313,-0.32812884,-0.7784748,-10.931251,-25.781252,-25.743752
1763129272099,1.198206,6.476773,7.047461,-0.0140498895,0.029016078,0.002290743,0.13708515,-0.3277823,-0.7777689,-10.931251,-25.781252,-25.743752
1763129272100,1.198206,6.476773,7.047461,-0.0140498895,0.029016078,0.002290743,0.13783829,-0.3273953,-0.77716744,-10.931251,-25.781252,-25.743752
1763129272102,1.198206,6.476773,7.047461,-0.0140498895,0.029016078,0.002290743,0.13783829,-0.3273953,-0.77716744,-10.668751,-25.875002,-25.800001
1763129272115,1.198206,6.476773,7.047461,-0.05818487,0.01970039,-0.009468404,0.13783829,-0.3273953,-0.77716744,-10.668751,-25.875002,-25.800001
1763129272116,1.0989038,6.401997,7.0839515,-0.05818487,0.01970039,-0.009468404,0.13783829,-0.3273953,-0.77716744,-10.668751,-25.875002,-25.800001
1763129272118,1.0989038,6.401997,7.0839515,-0.05818487,0.01970039,-0.009468404,0.13863362,-0.32685304,-0.7761794,-10.668751,-25.875002,-25.800001
1763129272119,1.0989038,6.401997,7.0839515,-0.05818487,0.01970039,-0.009468404,0.13863362,-0.32685304,-0.7761794,-11.71875,-26.437502,-25.95
1763129272136,1.0989038,6.401997,7.0839515,-0.08491021,0.029168794,0.011759147,0.13863362,-0.32685304,-0.7761794,-11.71875,-26.437502,-25.95
1763129272137,1.1180464,6.433702,7.19103,-0.08491021,0.029168794,0.011759147,0.13863362,-0.32685304,-0.7761794,-11.71875,-26.437502,-25.95
1763129272138,1.1180464,6.433702,7.19103,-0.08491021,0.029168794,0.011759147,0.1392828,-0.32592797,-0.7753312,-11.71875,-26.437502,-25.95
1763129272140,1.1180464,6.433702,7.19103,-0.08491021,0.029168794,0.011759147,0.1392828,-0.32592797,-0.7753312,-10.650001,-25.237501,-25.81875
1763129272158,1.1180464,6.433702,7.19103,-0.08491021,0.029168794,0.011759147,0.13950382,-0.32515958,-0.7748033,-10.650001,-25.237501,-25.81875
1763129272159,1.1180464,6.433702,7.19103,-0.089033544,-0.008857539,-0.0025961753,0.13950382,-0.32515958,-0.7748033,-10.650001,-25.237501,-25.81875
1763129272160,1.2173486,6.4683976,7.1431737,-0.089033544,-0.008857539,-0.0025961753,0.13950382,-0.32515958,-0.7748033,-10.650001,-25.237501,-25.81875
1763129272162,1.2173486,6.4683976,7.1431737,-0.089033544,-0.008857539,-0.0025961753,0.13950382,-0.32515958,-0.7748033,-11.418751,-26.7,-26.400002
1763129272179,1.2173486,6.4683976,7.1431737,-0.089033544,-0.008857539,-0.0025961753,0.13974173,-0.32427898,-0.7742615,-11.418751,-26.7,-26.400002
1763129272180,1.2173486,6.4683976,7.1431737,-0.11148282,0.0021380268,-0.023060145,0.13974173,-0.32427898,-0.7742615,-11.418751,-26.7,-26.400002
1763129272182,1.2173486,6.4683976,7.1431737,-0.11148282,0.0021380268,-0.023060145,0.13974173,-0.32427898,-0.7742615,-11.493751,-27.843752,-25.368752
1763129272184,1.2358929,6.4923263,7.220342,-0.11148282,0.0021380268,-0.023060145,0.13974173,-0.32427898,-0.7742615,-11.493751,-27.843752,-25.368752
1763129272197,1.2358929,6.4923263,7.220342,-0.11148282,0.0021380268,-0.023060145,0.13974173,-0.32427898,-0.7742615,-12.093751,-26.38125,-27.000002
1763129272198,1.2358929,6.4923263,7.220342,-0.17043127,0.047494736,-0.029474225,0.13974173,-0.32427898,-0.7742615,-12.093751,-26.38125,-27.000002
1763129272199,1.2358929,6.4923263,7.220342,-0.17043127,0.047494736,-0.029474225,0.1399762,-0.32268384,-0.7739355,-12.093751,-26.38125,-27.000002
1763129272200,1.1784651,6.3631134,7.164111,-0.17043127,0.047494736,-0.029474225,0.1399762,-0.32268384,-0.7739355,-12.093751,-26.38125,-27.000002
1763129272218,1.1784651,6.3631134,7.164111,-0.17043127,0.047494736,-0.029474225,0.1399762,-0.32268384,-0.7739355,-12.31875,-26.60625,-27.6
1763129272221,1.1784651,6.3631134,7.164111,-0.17043127,0.047494736,-0.029474225,0.14004728,-0.32083288,-0.7736674,-12.31875,-26.60625,-27.6
1763129272223,1.1784651,6.3631134,7.164111,-0.19456044,0.053450666,-0.012675445,0.14004728,-0.32083288,-0.7736674,-12.31875,-26.60625,-27.6
1763129272224,1.0402796,6.3134627,7.3363943,-0.19456044,0.053450666,-0.012675445,0.14004728,-0.32083288,-0.7736674,-12.31875,-26.60625,-27.6
1763129272237,1.0402796,6.3134627,7.3363943,-0.19456044,0.053450666,-0.012675445,0.14004728,-0.32083288,-0.7736674,-11.94375,-25.85625,-26.625002
1763129272240,1.0402796,6.3134627,7.3363943,-0.15256348,0.040622506,0.007941242,0.14004728,-0.32083288,-0.7736674,-11.94375,-25.85625,-26.625002
1763129272241,1.0564312,6.27099,7.5290165,-0.15256348,0.040622506,0.007941242,0.14004728,-0.32083288,-0.7736674,-11.94375,-25.85625,-26.625002
1763129272242,1.0564312,6.27099,7.5290165,-0.15256348,0.040622506,0.007941242,0.14010787,-0.31920227,-0.7735288,-11.94375,-25.85625,-26.625002
1763129272258,1.0564312,6.27099,7.5290165,-0.15256348,0.040622506,0.007941242,0.14010787,-0.31920227,-0.7735288,-11.90625,-26.00625,-26.437502
1763129272262,1.0564312,6.27099,7.5290165,-0.15256348,0.040622506,0.007941242,0.14015166,-0.3178478,-0.773902,-11.90625,-26.00625,-26.437502
1763129272263,1.0564312,6.27099,7.5290165,-0.10079269,0.062613636,-9.162972E-4,0.14015166,-0.3178478,-0.773902,-11.90625,-26.00625,-26.437502
1763129272264,1.1407782,6.2883377,7.4644103,-0.10079269,0.062613636,-9.162972E-4,0.14015166,-0.3178478,-0.773902,-11.90625,-26.00625,-26.437502
1763129272279,1.1407782,6.2883377,7.4644103,-0.10079269,0.062613636,-9.162972E-4,0.14015166,-0.3178478,-0.773902,-11.175,-26.79375,-24.6375
1763129272282,1.1407782,6.2883377,7.4644103,-0.12522727,0.06734784,-0.030695954,0.14015166,-0.3178478,-0.773902,-11.175,-26.79375,-24.6375
1763129272283,1.1407782,6.2883377,7.4644103,-0.12522727,0.06734784,-0.030695954,0.14021231,-0.31638706,-0.77428234,-11.175,-26.79375,-24.6375
1763129272284,1.1036894,6.352346,7.103094,-0.12522727,0.06734784,-0.030695954,0.14021231,-0.31638706,-0.77428234,-11.175,-26.79375,-24.6375
1763129272297,1.1036894,6.352346,7.103094,-0.12522727,0.06734784,-0.030695954,0.14021231,-0.31638706,-0.77428234,-12.450001,-27.4125,-25.9125
1763129272304,1.1036894,6.352346,7.103094,-0.21853687,0.037568185,-0.040011644,0.14021231,-0.31638706,-0.77428234,-12.450001,-27.4125,-25.9125
1763129272305,1.1036894,6.352346,7.103094,-0.21853687,0.037568185,-0.040011644,0.14063407,-0.31439584,-0.77353656,-12.450001,-27.4125,-25.9125
1763129272306,0.9702896,6.2727847,7.068398,-0.21853687,0.037568185,-0.040011644,0.14063407,-0.31439584,-0.77353656,-12.450001,-27.4125,-25.9125
1763129272317,0.9702896,6.2727847,7.068398,-0.21853687,0.037568185,-0.040011644,0.14063407,-0.31439584,-0.77353656,-12.7875,-26.212502,-26.175001
1763129272324,0.9732806,6.1591253,7.2646093,-0.21853687,0.037568185,-0.040011644,0.14063407,-0.31439584,-0.77353656,-12.7875,-26.212502,-26.175001
1763129272325,0.9732806,6.1591253,7.2646093,-0.21853687,0.037568185,-0.040011644,0.14080031,-0.31220675,-0.77260745,-12.7875,-26.212502,-26.175001
1763129272326,0.9732806,6.1591253,7.2646093,-0.25076,0.003970621,-0.013133593,0.14080031,-0.31220675,-0.77260745,-12.7875,-26.212502,-26.175001
1763129272339,0.9732806,6.1591253,7.2646093,-0.25076,0.003970621,-0.013133593,0.14080031,-0.31220675,-0.77260745,-10.725,-25.575,-25.593752
1763129272346,0.9732806,6.1591253,7.2646093,-0.21532984,-0.01725693,-0.020005822,0.14080031,-0.31220675,-0.77260745,-10.725,-25.575,-25.593752
1763129272347,1.0660025,6.101698,7.463812,-0.21532984,-0.01725693,-0.020005822,0.14080031,-0.31220675,-0.77260745,-10.725,-25.575,-25.593752
1763129272358,1.0660025,6.101698,7.463812,-0.21532984,-0.01725693,-0.020005822,0.14039543,-0.3103739,-0.77248526,-10.725,-25.575,-25.593752
1763129272359,1.0660025,6.101698,7.463812,-0.21532984,-0.01725693,-0.020005822,0.14039543,-0.3103739,-0.77248526,-10.70625,-25.575,-26.643751
1763129272367,1.0660025,6.101698,7.463812,-0.16065744,-0.004581486,-0.021227552,0.14039543,-0.3103739,-0.77248526,-10.70625,-25.575,-26.643751
1763129272368,1.0827522,6.1178493,7.524829,-0.16065744,-0.004581486,-0.021227552,0.14039543,-0.3103739,-0.77248526,-10.70625,-25.575,-26.643751
1763129272379,1.0827522,6.1178493,7.524829,-0.16065744,-0.004581486,-0.021227552,0.13970868,-0.3089952,-0.7729804,-10.70625,-25.575,-26.643751
1763129272380,1.0827522,6.1178493,7.524829,-0.16065744,-0.004581486,-0.021227552,0.13970868,-0.3089952,-0.7729804,-11.08125,-25.650002,-26.437502
1763129272388,1.0827522,6.1178493,7.524829,-0.13500112,-0.0042760535,-0.030695954,0.13970868,-0.3089952,-0.7729804,-11.08125,-25.650002,-26.437502
1763129272388,1.0301101,6.1322064,7.446464,-0.13500112,-0.0042760535,-0.030695954,0.13970868,-0.3089952,-0.7729804,-11.08125,-25.650002,-26.437502
1763129272397,1.0301101,6.1322064,7.446464,-0.13500112,-0.0042760535,-0.030695954,0.1490743,-0.30315307,-0.75566244,-11.08125,-25.650002,-26.437502
1763129272398,1.0301101,6.1322064,7.446464,-0.13500112,-0.0042760535,-0.030695954,0.1490743,-0.30315307,-0.75566244,-12.95625,-26.737501,-26.250002
1763129272408,1.0301101,6.1322064,7.446464,-0.13057235,-0.011606431,-0.024129158,0.1490743,-0.30315307,-0.75566244,-12.95625,-26.737501,-26.250002
1763129272409,0.974477,6.101698,7.426125,-0.13057235,-0.011606431,-0.024129158,0.1490743,-0.30315307,-0.75566244,-12.95625,-26.737501,-26.250002
1763129272422,0.974477,6.101698,7.426125,-0.13057235,-0.011606431,-0.024129158,0.1490743,-0.30315307,-0.75566244,-12.20625,-25.9125,-25.181252
1763129272423,0.974477,6.101698,7.426125,-0.13057235,-0.011606431,-0.024129158,0.14721677,-0.30283076,-0.7585908,-12.20625,-25.9125,-25.181252
1763129272430,0.974477,6.101698,7.426125,-0.15225805,-0.008399391,-0.02046397,0.14721677,-0.30283076,-0.7585908,-12.20625,-25.9125,-25.181252
1763129272431,1.0289137,6.055636,7.446464,-0.15225805,-0.008399391,-0.02046397,0.14721677,-0.30283076,-0.7585908,-12.20625,-25.9125,-25.181252
1763129272438,1.0289137,6.055636,7.446464,-0.15225805,-0.008399391,-0.02046397,0.14647272,-0.301737,-0.75945246,-12.20625,-25.9125,-25.181252
1763129272439,1.0289137,6.055636,7.446464,-0.15225805,-0.008399391,-0.02046397,0.14647272,-0.301737,-0.75945246,-9.337501,-23.8125,-25.800001
1763129272451,1.0289137,6.055636,7.446464,-0.17363831,-0.0108428495,-0.020616686,0.14647272,-0.301737,-0.75945246,-9.337501,-23.8125,-25.800001
1763129272452,1.0749756,6.053841,7.5266237,-0.17363831,-0.0108428495,-0.020616686,0.14647272,-0.301737,-0.75945246,-9.337501,-23.8125,-25.800001
1763129272458,1.0749756,6.053841,7.5266237,-0.17363831,-0.0108428495,-0.020616686,0.1477416,-0.2994162,-0.7561624,-9.337501,-23.8125,-25.800001
1763129272459,1.0749756,6.053841,7.5266237,-0.17363831,-0.0108428495,-0.020616686,0.1477416,-0.2994162,-0.7561624,-11.4375,-24.300001,-26.2875
1763129272472,1.0749756,6.053841,7.5266237,-0.1754709,-0.007177661,-0.023365578,0.1477416,-0.2994162,-0.7561624,-11.4375,-24.300001,-26.2875
1763129272472,1.0372887,6.041279,7.5900335,-0.1754709,-0.007177661,-0.023365578,0.1477416,-0.2994162,-0.7561624,-11.4375,-24.300001,-26.2875
1763129272479,1.0372887,6.041279,7.5900335,-0.1754709,-0.007177661,-0.023365578,0.14580598,-0.29861176,-0.7587674,-11.4375,-24.300001,-26.2875
1763129272480,1.0372887,6.041279,7.5900335,-0.1754709,-0.007177661,-0.023365578,0.14580598,-0.29861176,-0.7587674,-10.425,-24.88125,-27.35625
1763129272493,1.0372887,6.041279,7.5900335,-0.17211115,-0.008857539,-0.019394957,0.14580598,-0.29861176,-0.7587674,-10.425,-24.88125,-27.35625
1763129272494,1.0163515,6.0107703,7.6031938,-0.17211115,-0.008857539,-0.019394957,0.14580598,-0.29861176,-0.7587674,-10.425,-24.88125,-27.35625
1763129272499,1.0163515,6.0107703,7.6031938,-0.17211115,-0.008857539,-0.019394957,0.13910708,-0.30005458,-0.7702129,-10.425,-24.88125,-27.35625
1763129272500,1.0163515,6.0107703,7.6031938,-0.17211115,-0.008857539,-0.019394957,0.13910708,-0.30005458,-0.7702129,-11.606251,-25.462502,-27.093752
1763129272514,1.0163515,6.0107703,7.6031938,-0.14920372,-0.009468404,-0.0059559317,0.13910708,-0.30005458,-0.7702129,-11.606251,-25.462502,-27.093752
1763129272515,1.0971092,6.0137615,7.7347994,-0.14920372,-0.009468404,-0.0059559317,0.13910708,-0.30005458,-0.7702129,-11.606251,-25.462502,-27.093752
1763129272520,1.0971092,6.0137615,7.7347994,-0.14920372,-0.009468404,-0.0059559317,0.13910708,-0.30005458,-0.7702129,-10.950001,-24.018751,-26.831251
1763129272521,1.0971092,6.0137615,7.7347994,-0.14920372,-0.009468404,-0.0059559317,0.14067236,-0.29781705,-0.7664955,-10.950001,-24.018751,-26.831251
1763129272535,1.0989038,6.0011992,7.647461,-0.14920372,-0.009468404,-0.0059559317,0.14067236,-0.29781705,-0.7664955,-10.950001,-24.018751,-26.831251
1763129272536,1.0989038,6.0011992,7.647461,-0.12079851,0.00763581,-0.02535089,0.14067236,-0.29781705,-0.7664955,-10.950001,-24.018751,-26.831251
1763129272539,1.0989038,6.0011992,7.647461,-0.12079851,0.00763581,-0.02535089,0.14199032,-0.29587135,-0.7635347,-10.950001,-24.018751,-26.831251
1763129272540,1.0989038,6.0011992,7.647461,-0.12079851,0.00763581,-0.02535089,0.14199032,-0.29587135,-0.7635347,-12.262501,-25.44375,-25.781252
1763129272556,1.0989038,6.0011992,7.647461,-0.1188132,0.003970621,-0.029016078,0.14199032,-0.29587135,-0.7635347,-12.262501,-25.44375,-25.781252
1763129272557,0.9840483,5.919843,7.52782,-0.1188132,0.003970621,-0.029016078,0.14199032,-0.29587135,-0.7635347,-12.262501,-25.44375,-25.781252
1763129272558,0.9840483,5.919843,7.52782,-0.1188132,0.003970621,-0.029016078,0.14245266,-0.29447857,-0.76218784,-12.262501,-25.44375,-25.781252
1763129272559,0.9840483,5.919843,7.52782,-0.1188132,0.003970621,-0.029016078,0.14245266,-0.29447857,-0.76218784,-12.543751,-26.00625,-27.525002
1763129272578,0.9840483,5.919843,7.52782,-0.103236146,-0.042455103,-0.013133593,0.14245266,-0.29447857,-0.76218784,-12.543751,-26.00625,-27.525002
1763129272579,0.9840483,5.919843,7.52782,-0.103236146,-0.042455103,-0.013133593,0.14211209,-0.2937548,-0.76199156,-12.543751,-26.00625,-27.525002
1763129272581,1.0654043,5.9449677,7.533802,-0.103236146,-0.042455103,-0.013133593,0.14211209,-0.2937548,-0.76199156,-12.543751,-26.00625,-27.525002
1763129272583,1.0654043,5.9449677,7.533802,-0.103236146,-0.042455103,-0.013133593,0.14211209,-0.2937548,-0.76199156,-11.493751,-24.7875,-25.425001
1763129272598,1.0654043,5.9449677,7.533802,-0.103236146,-0.042455103,-0.013133593,0.13836244,-0.29469424,-0.76843184,-11.493751,-24.7875,-25.425001
1763129272600,1.0654043,5.9449677,7.533802,-0.10537417,-0.033597562,-0.0377209,0.13836244,-0.29469424,-0.76843184,-11.493751,-24.7875,-25.425001
1763129272601,1.0654043,5.9449677,7.533802,-0.10537417,-0.033597562,-0.0377209,0.13836244,-0.29469424,-0.76843184,-13.181251,-26.79375,-26.75625
1763129272602,1.1485549,5.928218,7.687541,-0.10537417,-0.033597562,-0.0377209,0.13836244,-0.29469424,-0.76843184,-13.181251,-26.79375,-26.75625
1763129272619,1.1485549,5.928218,7.687541,-0.12522727,0.02535089,-0.04092794,0.13836244,-0.29469424,-0.76843184,-13.181251,-26.79375,-26.75625
1763129272620,1.1485549,5.928218,7.687541,-0.12522727,0.02535089,-0.04092794,0.13608246,-0.29445037,-0.7724108,-13.181251,-26.79375,-26.75625
1763129272622,1.1485549,5.928218,7.687541,-0.12522727,0.02535089,-0.04092794,0.13608246,-0.29445037,-0.7724108,-11.587501,-24.018751,-26.868752
1763129272624,0.95832545,5.81097,7.6492558,-0.12522727,0.02535089,-0.04092794,0.13608246,-0.29445037,-0.7724108,-11.587501,-24.018751,-26.868752
1763129272637,0.95832545,5.81097,7.6492558,-0.12522727,0.02535089,-0.04092794,0.13608246,-0.29445037,-0.7724108,-11.90625,-25.218752,-27.243752
1763129272641,0.95832545,5.81097,7.6492558,-0.12614357,0.0030543238,-0.023365578,0.13608246,-0.29445037,-0.7724108,-11.90625,-25.218752,-27.243752
1763129272642,0.95832545,5.81097,7.6492558,-0.12614357,0.0030543238,-0.023365578,0.13560142,-0.29327384,-0.7729864,-11.90625,-25.218752,-27.243752
1763129272644,0.8967103,5.8193445,7.7204423,-0.12614357,0.0030543238,-0.023365578,0.13560142,-0.29327384,-0.7729864,-11.90625,-25.218752,-27.243752
1763129272657,0.8967103,5.8193445,7.7204423,-0.12614357,0.0030543238,-0.023365578,0.13560142,-0.29327384,-0.7729864,-11.94375,-25.85625,-26.175001
1763129272661,0.8967103,5.8193445,7.7204423,-0.12614357,0.0030543238,-0.023365578,0.1345638,-0.29265973,-0.7748347,-11.94375,-25.85625,-26.175001
1763129272662,0.8967103,5.8193445,7.7204423,-0.09315688,0.0042760535,-0.0067195124,0.1345638,-0.29265973,-0.7748347,-11.94375,-25.85625,-26.175001
1763129272664,1.0013963,5.764908,7.7826557,-0.09315688,0.0042760535,-0.0067195124,0.1345638,-0.29265973,-0.7748347,-11.94375,-25.85625,-26.175001
1763129272679,1.0013963,5.764908,7.7826557,-0.09315688,0.0042760535,-0.0067195124,0.1345638,-0.29265973,-0.7748347,-10.81875,-24.956251,-25.931252
1763129272681,1.0013963,5.764908,7.7826557,-0.048411034,-0.013286309,-0.004581486,0.1345638,-0.29265973,-0.7748347,-10.81875,-24.956251,-25.931252
1763129272682,1.0013963,5.764908,7.7826557,-0.048411034,-0.013286309,-0.004581486,0.13383485,-0.29232013,-0.7757853,-10.81875,-24.956251,-25.931252
1763129272683,1.0444671,5.8396835,7.8592257,-0.048411034,-0.013286309,-0.004581486,0.13383485,-0.29232013,-0.7757853,-10.81875,-24.956251,-25.931252
1763129272699,1.0444671,5.8396835,7.8592257,-0.048411034,-0.013286309,-0.004581486,0.13383485,-0.29232013,-0.7757853,-11.56875,-24.16875,-26.5125
1763129272703,1.0444671,5.8396835,7.8592257,-0.048411034,-0.013286309,-0.004581486,0.1332421,-0.29196185,-0.7769317,-11.56875,-24.16875,-26.5125
1763129272704,1.0163515,5.814559,7.7461653,-0.048411034,-0.013286309,-0.004581486,0.1332421,-0.29196185,-0.7769317,-11.56875,-24.16875,-26.5125
1763129272706,1.0163515,5.814559,7.7461653,-0.04382955,0.01725693,-0.0108428495,0.1332421,-0.29196185,-0.7769317,-11.56875,-24.16875,-26.5125
1763129272717,1.0163515,5.814559,7.7461653,-0.04382955,0.01725693,-0.0108428495,0.1332421,-0.29196185,-0.7769317,-10.556251,-22.650002,-26.475
1763129272723,1.0163515,5.814559,7.7461653,-0.04382955,0.01725693,-0.0108428495,0.13256563,-0.29157618,-0.7782098,-10.556251,-22.650002,-26.475
1763129272724,0.9553344,5.7726846,7.760522,-0.04382955,0.01725693,-0.0108428495,0.13256563,-0.29157618,-0.7782098,-10.556251,-22.650002,-26.475
1763129272725,0.9553344,5.7726846,7.760522,-0.057726722,0.028710645,0.005497783,0.13256563,-0.29157618,-0.7782098,-10.556251,-22.650002,-26.475
1763129272738,0.9553344,5.7726846,7.760522,-0.057726722,0.028710645,0.005497783,0.13256563,-0.29157618,-0.7782098,-11.700001,-24.993752,-26.025002
1763129272745,0.9553344,5.7726846,7.760522,-0.057726722,0.028710645,0.005497783,0.1318071,-0.29131135,-0.77994967,-11.700001,-24.993752,-26.025002
1763129272746,0.9553344,5.7726846,7.760522,-0.041691523,0.037568185,0.009315688,0.1318071,-0.29131135,-0.77994967,-11.700001,-24.993752,-26.025002
1763129272747,1.038485,5.811568,7.780263,-0.041691523,0.037568185,0.009315688,0.1318071,-0.29131135,-0.77994967,-11.700001,-24.993752,-26.025002
1763129272758,1.038485,5.811568,7.780263,-0.041691523,0.037568185,0.009315688,0.1318071,-0.29131135,-0.77994967,-12.3,-25.143751,-27.225
1763129272766,1.038485,5.811568,7.780263,-0.028710645,0.043065965,-0.0035124724,0.1318071,-0.29131135,-0.77994967,-12.3,-25.143751,-27.225
1763129272767,1.0001999,5.820541,7.6779695,-0.028710645,0.043065965,-0.0035124724,0.1318071,-0.29131135,-0.77994967,-12.3,-25.143751,-27.225
1763129272779,1.0001999,5.820541,7.6779695,-0.028710645,0.043065965,-0.0035124724,0.13233075,-0.29066342,-0.7794121,-12.3,-25.143751,-27.225
1763129272780,1.0001999,5.820541,7.6779695,-0.028710645,0.043065965,-0.0035124724,0.13233075,-0.29066342,-0.7794121,-13.575001,-25.425001,-24.35625
1763129272790,1.0001999,5.820541,7.6779695,-0.025198173,0.07101303,-0.008246674,0.13233075,-0.29066342,-0.7794121,-13.575001,-25.425001,-24.35625
1763129272790,0.8889336,5.7320065,6.9966135,-0.025198173,0.07101303,-0.008246674,0.13233075,-0.29066342,-0.7794121,-13.575001,-25.425001,-24.35625
1763129272797,0.8889336,5.7320065,6.9966135,-0.025198173,0.07101303,-0.008246674,0.13233075,-0.29066342,-0.7794121,-11.475,-24.7875,-26.925001
1763129272797,0.8889336,5.7320065,6.9966135,-0.025198173,0.07101303,-0.008246674,0.13313982,-0.28999382,-0.7789437,-11.475,-24.7875,-26.925001
1763129272807,0.8889336,5.7320065,6.9966135,-0.07513637,-0.109039366,0.0010690134,0.13313982,-0.28999382,-0.7789437,-11.475,-24.7875,-26.925001
1763129272807,0.8171489,5.7667027,7.4620175,-0.07513637,-0.109039366,0.0010690134,0.13313982,-0.28999382,-0.7789437,-11.475,-24.7875,-26.925001
1763129272817,0.8171489,5.7667027,7.4620175,-0.07513637,-0.109039366,0.0010690134,0.1331742,-0.29008883,-0.7775588,-11.475,-24.7875,-26.925001
1763129272818,0.8171489,5.7667027,7.4620175,-0.07513637,-0.109039366,0.0010690134,0.1331742,-0.29008883,-0.7775588,-14.025001,-25.687502,-25.931252
1763129272829,0.8171489,5.7667027,7.4620175,-0.126449,-0.10079269,0.04963276,0.1331742,-0.29008883,-0.7775588,-14.025001,-25.687502,-25.931252
1763129272830,1.0707881,5.6889358,7.804191,-0.126449,-0.10079269,0.04963276,0.1331742,-0.29008883,-0.7775588,-14.025001,-25.687502,-25.931252
1763129272838,1.0707881,5.6889358,7.804191,-0.126449,-0.10079269,0.04963276,0.1331742,-0.29008883,-0.7775588,-12.993751,-26.41875,-26.343752
1763129272838,1.0707881,5.6889358,7.804191,-0.126449,-0.10079269,0.04963276,0.13288435,-0.28930953,-0.7760347,-12.993751,-26.41875,-26.343752
1763129272850,1.0707881,5.6889358,7.804191,-0.1273653,-0.026267186,0.056352276,0.13288435,-0.28930953,-0.7760347,-12.993751,-26.41875,-26.343752
1763129272851,1.166501,5.790631,8.249256,-0.1273653,-0.026267186,0.056352276,0.13288435,-0.28930953,-0.7760347,-12.993751,-26.41875,-26.343752
1763129272859,1.166501,5.790631,8.249256,-0.1273653,-0.026267186,0.056352276,0.13092111,-0.28876075,-0.7776381,-12.993751,-26.41875,-26.343752
1763129272859,1.166501,5.790631,8.249256,-0.1273653,-0.026267186,0.056352276,0.13092111,-0.28876075,-0.7776381,-12.656251,-24.581251,-26.56875
1763129272871,1.166501,5.790631,8.249256,-0.03604102,0.045509428,0.031154104,0.13092111,-0.28876075,-0.7776381,-12.656251,-24.581251,-26.56875
1763129272871,1.2472588,5.884549,8.105088,-0.03604102,0.045509428,0.031154104,0.13092111,-0.28876075,-0.7776381,-12.656251,-24.581251,-26.56875
1763129272879,1.2472588,5.884549,8.105088,-0.03604102,0.045509428,0.031154104,0.1299545,-0.28830445,-0.77899,-12.656251,-24.581251,-26.56875
1763129272880,1.2472588,5.884549,8.105088,-0.03604102,0.045509428,0.031154104,0.1299545,-0.28830445,-0.77899,-12.58125,-25.2,-25.48125
1763129272895,1.2472588,5.884549,8.105088,0.050243627,-0.027488915,-0.037262753,0.1299545,-0.28830445,-0.77899,-12.58125,-25.2,-25.48125
1763129272896,0.8500503,5.6482577,7.650452,0.050243627,-0.027488915,-0.037262753,0.1299545,-0.28830445,-0.77899,-12.58125,-25.2,-25.48125
1763129272898,0.8500503,5.6482577,7.650452,0.050243627,-0.027488915,-0.037262753,0.12893252,-0.28924236,-0.7808031,-12.58125,-25.2,-25.48125
1763129272898,0.8500503,5.6482577,7.650452,0.050243627,-0.027488915,-0.037262753,0.12893252,-0.28924236,-0.7808031,-12.431251,-24.50625,-24.712502
