timestamp,accX,accY,accZ,gyroX,gyroY,gyroZ,rotX,rotY,rotZ,magX,magY,magZ
1763129392398,-2.9012976,6.701698,2.861816,0.011911863,-0.9114103,-0.33597562,0.40946993,0.03228539,-0.14119965,-0.09375,-4.2000003,-34.6875
1763129392399,-2.9012976,6.701698,2.861816,0.011911863,-0.9114103,-0.33597562,0.4086933,0.025342481,-0.14862385,-0.09375,-4.2000003,-34.6875
1763129392399,-1.3657036,6.5850477,4.6468616,0.011911863,-0.9114103,-0.33597562,0.4086933,0.025342481,-0.14862385,-0.09375,-4.2000003,-34.6875
1763129392400,-1.3657036,6.5850477,4.6468616,0.011911863,-0.9114103,-0.33597562,0.4086933,0.025342481,-0.14862385,-1.95,-3.9750001,-32.8875
1763129392418,-1.3657036,6.5850477,4.6468616,0.011911863,-0.9114103,-0.33597562,0.4086933,0.025342481,-0.14862385,0.75,-3.05625,-36.2625
1763129392419,-1.3657036,6.5850477,4.6468616,-0.6551525,-0.4659371,-0.19853105,0.4086933,0.025342481,-0.14862385,0.75,-3.05625,-36.2625
1763129392419,-1.2861422,6.510272,5.5896335,-0.6551525,-0.4659371,-0.19853105,0.4086933,0.025342481,-0.14862385,0.75,-3.05625,-36.2625
1763129392420,-1.2861422,6.510272,5.5896335,-0.6551525,-0.4659371,-0.19853105,0.40196973,0.022860633,-0.15216947,0.75,-3.05625,-36.2625
1763129392437,-1.2861422,6.510272,5.5896335,-0.6551525,-0.4659371,-0.19853105,0.40196973,0.022860633,-0.15216947,-4.0125003,-6.8812504,-34.537502
1763129392439,-1.2861422,6.510272,5.5896335,-0.98563033,-0.20479241,-0.1301142,0.40196973,0.022860633,-0.15216947,-4.0125003,-6.8812504,-34.537502
1763129392439,-1.2861422,6.510272,5.5896335,-0.98563033,-0.20479241,-0.1301142,0.39238036,0.023051094,-0.15388678,-4.0125003,-6.8812504,-34.537502
1763129392440,-2.2558336,6.2518473,6.3493547,-0.98563033,-0.20479241,-0.1301142,0.39238036,0.023051094,-0.15388678,-4.0125003,-6.8812504,-34.537502
1763129392458,-2.2558336,6.2518473,6.3493547,-0.98563033,-0.20479241,-0.1301142,0.39238036,0.023051094,-0.15388678,-6.0375004,-5.5687504,-32.756252
1763129392460,-2.2558336,6.2518473,6.3493547,-0.8636101,-0.15775582,0.037568185,0.39238036,0.023051094,-0.15388678,-6.0375004,-5.5687504,-32.756252
1763129392461,-2.207977,6.3541408,6.9212394,-0.8636101,-0.15775582,0.037568185,0.39238036,0.023051094,-0.15388678,-6.0375004,-5.5687504,-32.756252
1763129392461,-2.207977,6.3541408,6.9212394,-0.8636101,-0.15775582,0.037568185,0.38392588,0.022915158,-0.15419075,-6.0375004,-5.5687504,-32.756252
1763129392478,-2.207977,6.3541408,6.9212394,-0.8636101,-0.15775582,0.037568185,0.38392588,0.022915158,-0.15419075,0.43125,-1.85625,-36.225002
1763129392481,-2.207977,6.3541408,6.9212394,-0.5568032,-0.29031348,0.123089254,0.38392588,0.022915158,-0.15419075,0.43125,-1.85625,-36.225002
1763129392482,-2.207977,6.3541408,6.9212394,-0.5568032,-0.29031348,0.123089254,0.37813416,0.020636998,-0.15433061,0.43125,-1.85625,-36.225002
1763129392483,-1.5756737,6.602994,7.3232336,-0.5568032,-0.29031348,0.123089254,0.37813416,0.020636998,-0.15433061,0.43125,-1.85625,-36.225002
1763129392498,-1.5756737,6.602994,7.3232336,-0.5568032,-0.29031348,0.123089254,0.37813416,0.020636998,-0.15433061,-1.8000001,-4.6125,-36.15
1763129392503,-1.5756737,6.602994,7.3232336,-0.28970262,-0.36361727,0.083688475,0.37813416,0.020636998,-0.15433061,-1.8000001,-4.6125,-36.15
1763129392504,-1.5756737,6.602994,7.3232336,-0.28970262,-0.36361727,0.083688475,0.37473267,0.017302005,-0.15496646,-1.8000001,-4.6125,-36.15
1763129392505,-1.2604194,6.6215386,7.472187,-0.28970262,-0.36361727,0.083688475,0.37473267,0.017302005,-0.15496646,-1.8000001,-4.6125,-36.15
1763129392517,-1.2604194,6.6215386,7.472187,-0.28970262,-0.36361727,0.083688475,0.37473267,0.017302005,-0.15496646,-2.53125,-4.14375,-35.8875
1763129392523,-1.2604194,6.6215386,7.472187,-0.16508621,-0.30879214,0.01847866,0.37473267,0.017302005,-0.15496646,-2.53125,-4.14375,-35.8875
1763129392524,-1.2604194,6.6215386,7.472187,-0.16508621,-0.30879214,0.01847866,0.3725764,0.01451077,-0.15593854,-2.53125,-4.14375,-35.8875
1763129392525,-1.2406785,6.745965,7.058827,-0.16508621,-0.30879214,0.01847866,0.3725764,0.01451077,-0.15593854,-2.53125,-4.14375,-35.8875
1763129392538,-1.2406785,6.745965,7.058827,-0.16508621,-0.30879214,0.01847866,0.3725764,0.01451077,-0.15593854,-1.5187501,-2.60625,-34.03125
1763129392545,-1.2406785,6.745965,7.058827,-0.2131918,-0.3507891,-0.017409647,0.3725764,0.01451077,-0.15593854,-1.5187501,-2.60625,-34.03125
1763129392546,-1.4117653,6.7633133,6.806982,-0.2131918,-0.3507891,-0.017409647,0.3725764,0.01451077,-0.15593854,-1.5187501,-2.60625,-34.03125
1763129392547,-1.4117653,6.7633133,6.806982,-0.2131918,-0.3507891,-0.017409647,0.3699796,0.011545068,-0.15738693,-1.5187501,-2.60625,-34.03125
1763129392558,-1.4117653,6.7633133,6.806982,-0.2131918,-0.3507891,-0.017409647,0.3699796,0.011545068,-0.15738693,-1.7062501,-2.98125,-34.74375
1763129392565,-1.4117653,6.7633133,6.806982,-0.29550585,-0.4085158,0.0065667965,0.3699796,0.011545068,-0.15738693,-1.7062501,-2.98125,-34.74375
1763129392566,-1.3561323,6.704689,7.0002027,-0.29550585,-0.4085158,0.0065667965,0.3699796,0.011545068,-0.15738693,-1.7062501,-2.98125,-34.74375
1763129392579,-1.3561323,6.704689,7.0002027,-0.29550585,-0.4085158,0.0065667965,0.36655724,0.008101874,-0.15888,-1.7062501,-2.98125,-34.74375
1763129392579,-1.3561323,6.704689,7.0002027,-0.29550585,-0.4085158,0.0065667965,0.36655724,0.008101874,-0.15888,-3.6375,-5.0437503,-37.331253
1763129392587,-1.3561323,6.704689,7.0002027,-0.28848088,-0.45127636,0.024129158,0.36655724,0.008101874,-0.15888,-3.6375,-5.0437503,-37.331253
1763129392587,-1.099502,6.647261,7.4769726,-0.28848088,-0.45127636,0.024129158,0.36655724,0.008101874,-0.15888,-3.6375,-5.0437503,-37.331253
1763129392597,-1.099502,6.647261,7.4769726,-0.28848088,-0.45127636,0.024129158,0.36309692,0.0041673933,-0.16037656,-3.6375,-5.0437503,-37.331253
1763129392598,-1.099502,6.647261,7.4769726,-0.28848088,-0.45127636,0.024129158,0.36309692,0.0041673933,-0.16037656,-3.7500002,-2.9625,-35.49375
1763129392608,-1.099502,6.647261,7.4769726,-0.19562945,-0.37140578,0.0042760535,0.36309692,0.0041673933,-0.16037656,-3.7500002,-2.9625,-35.49375
1763129392609,-0.92542416,6.7178497,7.7443705,-0.19562945,-0.37140578,0.0042760535,0.36309692,0.0041673933,-0.16037656,-3.7500002,-2.9625,-35.49375
1763129392617,-0.92542416,6.7178497,7.7443705,-0.19562945,-0.37140578,0.0042760535,0.36057383,8.900208E-4,-0.16171063,-3.7500002,-2.9625,-35.49375
1763129392618,-0.92542416,6.7178497,7.7443705,-0.19562945,-0.37140578,0.0042760535,0.36057383,8.900208E-4,-0.16171063,-2.25,-1.8375001,-36.412502
1763129392629,-0.92542416,6.7178497,7.7443705,-0.108123064,-0.30863944,-0.023823727,0.36057383,8.900208E-4,-0.16171063,-2.25,-1.8375001,-36.412502
1763129392629,-0.9176475,6.7411795,7.5978103,-0.108123064,-0.30863944,-0.023823727,0.36057383,8.900208E-4,-0.16171063,-2.25,-1.8375001,-36.412502
1763129392637,-0.9176475,6.7411795,7.5978103,-0.108123064,-0.30863944,-0.023823727,0.36057383,8.900208E-4,-0.16171063,-4.2000003,-3.24375,-36.16875
1763129392638,-0.9176475,6.7411795,7.5978103,-0.108123064,-0.30863944,-0.023823727,0.35896736,-0.0018448782,-0.16303194,-4.2000003,-3.24375,-36.16875
1763129392649,-1.0127622,6.652047,7.12762,-0.108123064,-0.30863944,-0.023823727,0.35896736,-0.0018448782,-0.16303194,-4.2000003,-3.24375,-36.16875
1763129392649,-1.0127622,6.652047,7.12762,-0.07849612,-0.29825473,-0.01527162,0.35896736,-0.0018448782,-0.16303194,-4.2000003,-3.24375,-36.16875
1763129392660,-1.0127622,6.652047,7.12762,-0.07849612,-0.29825473,-0.01527162,0.35896736,-0.0018448782,-0.16303194,-2.53125,-2.53125,-36.45
1763129392661,-1.0127622,6.652047,7.12762,-0.07849612,-0.29825473,-0.01527162,0.35769343,-0.004556812,-0.16423225,-2.53125,-2.53125,-36.45
1763129392671,-1.0127622,6.652047,7.12762,-0.06368265,-0.41050112,0.0021380268,0.35769343,-0.004556812,-0.16423225,-2.53125,-2.53125,-36.45
1763129392671,-0.8315059,6.6442704,6.7968125,-0.06368265,-0.41050112,0.0021380268,0.35769343,-0.004556812,-0.16423225,-2.53125,-2.53125,-36.45
1763129392677,-0.8315059,6.6442704,6.7968125,-0.06368265,-0.41050112,0.0021380268,0.35643288,-0.008414581,-0.16572516,-2.53125,-2.53125,-36.45
1763129392678,-0.8315059,6.6442704,6.7968125,-0.06368265,-0.41050112,0.0021380268,0.35643288,-0.008414581,-0.16572516,-3.9375002,-3.1875002,-36.7125
1763129392692,-0.8315059,6.6442704,6.7968125,-0.10155627,-0.47662723,-0.03405571,0.35643288,-0.008414581,-0.16572516,-3.9375002,-3.1875002,-36.7125
1763129392693,-0.49950173,6.680761,6.863812,-0.10155627,-0.47662723,-0.03405571,0.35643288,-0.008414581,-0.16572516,-3.9375002,-3.1875002,-36.7125
1763129392698,-0.49950173,6.680761,6.863812,-0.10155627,-0.47662723,-0.03405571,0.35474157,-0.012721647,-0.16775638,-3.9375002,-3.1875002,-36.7125
1763129392699,-0.49950173,6.680761,6.863812,-0.10155627,-0.47662723,-0.03405571,0.35474157,-0.012721647,-0.16775638,-3.9375002,-3.3375,-35.15625
1763129392713,-0.49950173,6.680761,6.863812,-0.20433427,-0.3996583,-0.10491603,0.35474157,-0.012721647,-0.16775638,-3.9375002,-3.3375,-35.15625
1763129392714,-0.53300124,6.593423,6.8949184,-0.20433427,-0.3996583,-0.10491603,0.35474157,-0.012721647,-0.16775638,-3.9375002,-3.3375,-35.15625
1763129392718,-0.53300124,6.593423,6.8949184,-0.20433427,-0.3996583,-0.10491603,0.35219216,-0.015879715,-0.1700897,-3.9375002,-3.3375,-35.15625
1763129392719,-0.53300124,6.593423,6.8949184,-0.20433427,-0.3996583,-0.10491603,0.35219216,-0.015879715,-0.1700897,-2.625,-1.25625,-34.706253
1763129392734,-0.53300124,6.593423,6.8949184,-0.25137085,-0.40805766,-0.1404989,0.35219216,-0.015879715,-0.1700897,-2.625,-1.25625,-34.706253
1763129392735,-0.8745767,6.443273,6.8979096,-0.25137085,-0.40805766,-0.1404989,0.35219216,-0.015879715,-0.1700897,-2.625,-1.25625,-34.706253
1763129392739,-0.8745767,6.443273,6.8979096,-0.25137085,-0.40805766,-0.1404989,0.35219216,-0.015879715,-0.1700897,-2.41875,-0.90000004,-35.79375
1763129392741,-0.8745767,6.443273,6.8979096,-0.25137085,-0.40805766,-0.1404989,0.34916723,-0.018892087,-0.17283382,-2.41875,-0.90000004,-35.79375
1763129392754,-0.8745767,6.443273,6.8979096,-0.20861033,-0.46990773,-0.126449,0.34916723,-0.018892087,-0.17283382,-2.41875,-0.90000004,-35.79375
1763129392755,-1.0875379,6.259624,7.1898336,-0.20861033,-0.46990773,-0.126449,0.34916723,-0.018892087,-0.17283382,-2.41875,-0.90000004,-35.79375
1763129392757,-1.0875379,6.259624,7.1898336,-0.20861033,-0.46990773,-0.126449,0.34642687,-0.022576356,-0.17580326,-2.41875,-0.90000004,-35.79375
1763129392758,-1.0875379,6.259624,7.1898336,-0.20861033,-0.46990773,-0.126449,0.34642687,-0.022576356,-0.17580326,-3.3000002,-3.3375,-35.11875
1763129392776,-1.0875379,6.259624,7.1898336,-0.17928882,-0.4801397,-0.09529491,0.34642687,-0.022576356,-0.17580326,-3.3000002,-3.3375,-35.11875
1763129392777,-0.77647096,6.3122663,7.5583286,-0.17928882,-0.4801397,-0.09529491,0.34642687,-0.022576356,-0.17580326,-3.3000002,-3.3375,-35.11875
1763129392779,-0.77647096,6.3122663,7.5583286,-0.17928882,-0.4801397,-0.09529491,0.34387258,-0.02648848,-0.17862506,-3.3000002,-3.3375,-35.11875
1763129392780,-0.77647096,6.3122663,7.5583286,-0.17928882,-0.4801397,-0.09529491,0.34387258,-0.02648848,-0.17862506,-3.35625,-0.4875,-37.10625
1763129392798,-0.77647096,6.3122663,7.5583286,-0.19196425,-0.41798422,-0.1310305,0.34387258,-0.02648848,-0.17862506,-3.35625,-0.4875,-37.10625
1763129392800,-0.77647096,6.3122663,7.5583286,-0.19196425,-0.41798422,-0.1310305,0.34126654,-0.029685711,-0.1814859,-3.35625,-0.4875,-37.10625
1763129392801,-0.77647096,6.3122663,7.5583286,-0.19196425,-0.41798422,-0.1310305,0.34126654,-0.029685711,-0.1814859,-4.5375004,-2.025,-34.912502
1763129392803,-0.4869394,6.37089,7.8424764,-0.19196425,-0.41798422,-0.1310305,0.34126654,-0.029685711,-0.1814859,-4.5375004,-2.025,-34.912502
1763129392819,-0.79800636,6.189036,7.8089767,-0.19196425,-0.41798422,-0.1310305,0.34126654,-0.029685711,-0.1814859,-4.5375004,-2.025,-34.912502
1763129392820,-0.79800636,6.189036,7.8089767,-0.19196425,-0.41798422,-0.1310305,0.33873203,-0.031658977,-0.18452622,-4.5375004,-2.025,-34.912502
1763129392822,-0.79800636,6.189036,7.8089767,-0.20311254,-0.31413722,-0.19700389,0.33873203,-0.031658977,-0.18452622,-4.5375004,-2.025,-34.912502
1763129392823,-0.79800636,6.189036,7.8089767,-0.20311254,-0.31413722,-0.19700389,0.33873203,-0.031658977,-0.18452622,-6.5625005,-4.425,-35.643753
1763129392839,-1.1724831,6.075975,7.6426754,-0.20311254,-0.31413722,-0.19700389,0.33873203,-0.031658977,-0.18452622,-6.5625005,-4.425,-35.643753
1763129392840,-1.1724831,6.075975,7.6426754,-0.22632541,-0.27137667,-0.1782198,0.33873203,-0.031658977,-0.18452622,-6.5625005,-4.425,-35.643753
1763129392841,-1.1724831,6.075975,7.6426754,-0.22632541,-0.27137667,-0.1782198,0.33603784,-0.03319121,-0.18736292,-6.5625005,-4.425,-35.643753
1763129392842,-1.1724831,6.075975,7.6426754,-0.22632541,-0.27137667,-0.1782198,0.33603784,-0.03319121,-0.18736292,-5.1000004,-1.5375,-36.881252
1763129392859,-1.1724831,6.075975,7.6426754,-0.22632541,-0.27137667,-0.1782198,0.33603784,-0.03319121,-0.18736292,-5.1375003,-1.5187501,-35.381252
1763129392860,-1.1724831,6.075975,7.6426754,-0.22632541,-0.27137667,-0.1782198,0.33329684,-0.03510159,-0.1895918,-5.1375003,-1.5187501,-35.381252
1763129392861,-1.1724831,6.075975,7.6426754,-0.22754712,-0.28710645,-0.09605849,0.33329684,-0.03510159,-0.1895918,-5.1375003,-1.5187501,-35.381252
1763129392862,-1.0767702,6.029913,7.765308,-0.22754712,-0.28710645,-0.09605849,0.33329684,-0.03510159,-0.1895918,-5.1375003,-1.5187501,-35.381252
1763129392877,-1.0767702,6.029913,7.765308,-0.22754712,-0.28710645,-0.09605849,0.33329684,-0.03510159,-0.1895918,-5.86875,-3.3000002,-34.818752
1763129392880,-1.0767702,6.029913,7.765308,-0.1875355,-0.30589053,-0.04886918,0.33329684,-0.03510159,-0.1895918,-5.86875,-3.3000002,-34.818752
1763129392882,-1.0767702,6.029913,7.765308,-0.1875355,-0.30589053,-0.04886918,0.33086458,-0.03744564,-0.19140007,-5.86875,-3.3000002,-34.818752
1763129392884,-0.66999036,6.0921264,7.98126,-0.1875355,-0.30589053,-0.04886918,0.33086458,-0.03744564,-0.19140007,-5.86875,-3.3000002,-34.818752
1763129392899,-0.66999036,6.0921264,7.98126,-0.1875355,-0.30589053,-0.04886918,0.33086458,-0.03744564,-0.19140007,-6.0,-1.725,-35.268753
1763129392902,-0.66999036,6.0921264,7.98126,-0.15622866,-0.18906265,-0.056046844,0.33086458,-0.03744564,-0.19140007,-6.0,-1.725,-35.268753
1763129392903,-0.66999036,6.0921264,7.98126,-0.15622866,-0.18906265,-0.056046844,0.32894343,-0.038751684,-0.192728,-6.0,-1.725,-35.268753
1763129392904,-0.48155555,6.1005015,8.169097,-0.15622866,-0.18906265,-0.056046844,0.32894343,-0.038751684,-0.192728,-6.0,-1.725,-35.268753
1763129392918,-0.48155555,6.1005015,8.169097,-0.15622866,-0.18906265,-0.056046844,0.32894343,-0.038751684,-0.192728,-8.15625,-4.14375,-35.568752
1763129392922,-0.48155555,6.1005015,8.169097,-0.13545926,-0.06444623,-0.07040217,0.32894343,-0.038751684,-0.192728,-8.15625,-4.14375,-35.568752
1763129392923,-0.7046863,6.09093,8.024331,-0.13545926,-0.06444623,-0.07040217,0.32894343,-0.038751684,-0.192728,-8.15625,-4.14375,-35.568752
1763129392924,-0.7046863,6.09093,8.024331,-0.13545926,-0.06444623,-0.07040217,0.32745406,-0.038869265,-0.19369954,-8.15625,-4.14375,-35.568752
1763129392937,-0.7046863,6.09093,8.024331,-0.13545926,-0.06444623,-0.07040217,0.32745406,-0.038869265,-0.19369954,-6.7875004,-1.575,-35.100002
1763129392944,-0.7046863,6.09093,8.024331,-0.13545926,-0.06444623,-0.07040217,0.3264085,-0.039099626,-0.19466926,-6.7875004,-1.575,-35.100002
1763129392945,-0.7046863,6.09093,8.024331,-0.09193515,-0.06811142,-0.064140804,0.3264085,-0.039099626,-0.19466926,-6.7875004,-1.575,-35.100002
1763129392946,-0.7609176,6.075975,7.640881,-0.09193515,-0.06811142,-0.064140804,0.3264085,-0.039099626,-0.19466926,-6.7875004,-1.575,-35.100002
1763129392958,-0.7609176,6.075975,7.640881,-0.09193515,-0.06811142,-0.064140804,0.3264085,-0.039099626,-0.19466926,-6.15,-1.44375,-36.0
1763129392964,-0.7609176,6.075975,7.640881,-0.09193515,-0.06811142,-0.064140804,0.32548204,-0.03982509,-0.1954928,-6.15,-1.44375,-36.0
1763129392966,-0.67477596,6.0634127,7.6348987,-0.09193515,-0.06811142,-0.064140804,0.32548204,-0.03982509,-0.1954928,-6.15,-1.44375,-36.0
1763129392967,-0.67477596,6.0634127,7.6348987,-0.07666353,-0.10720677,-0.03619374,0.32548204,-0.03982509,-0.1954928,-6.15,-1.44375,-36.0
1763129392978,-0.67477596,6.0634127,7.6348987,-0.07666353,-0.10720677,-0.03619374,0.32548204,-0.03982509,-0.1954928,-5.1937504,0.39375,-35.1375
1763129392986,-0.67477596,6.0634127,7.6348987,-0.05146536,-0.15149446,-0.00962112,0.32548204,-0.03982509,-0.1954928,-5.1937504,0.39375,-35.1375
1763129392986,-0.45822555,6.109474,7.647461,-0.05146536,-0.15149446,-0.00962112,0.32548204,-0.03982509,-0.1954928,-5.1937504,0.39375,-35.1375
1763129392998,-0.45822555,6.109474,7.647461,-0.05146536,-0.15149446,-0.00962112,0.32469597,-0.041131258,-0.19617574,-5.1937504,0.39375,-35.1375
1763129392999,-0.45822555,6.109474,7.647461,-0.05146536,-0.15149446,-0.00962112,0.32469597,-0.041131258,-0.19617574,-7.275,-2.6437502,-33.75
1763129393006,-0.45822555,6.109474,7.647461,-0.06169734,-0.10506874,-0.054061532,0.32469597,-0.041131258,-0.19617574,-7.275,-2.6437502,-33.75
1763129393008,-0.3894319,6.128617,7.6366935,-0.06169734,-0.10506874,-0.054061532,0.32469597,-0.041131258,-0.19617574,-7.275,-2.6437502,-33.75
1763129393018,-0.3894319,6.128617,7.6366935,-0.06169734,-0.10506874,-0.054061532,0.3239275,-0.04184495,-0.19705942,-7.275,-2.6437502,-33.75
1763129393019,-0.3894319,6.128617,7.6366935,-0.06169734,-0.10506874,-0.054061532,0.3239275,-0.04184495,-0.19705942,-6.4125004,-3.1125002,-35.193752
1763129393027,-0.3894319,6.128617,7.6366935,-0.107817635,-0.027794348,-0.08414663,0.3239275,-0.04184495,-0.19705942,-6.4125004,-3.1125002,-35.193752
1763129393028,-0.6161518,6.0346985,7.591828,-0.107817635,-0.027794348,-0.08414663,0.3239275,-0.04184495,-0.19705942,-6.4125004,-3.1125002,-35.193752
1763129393037,-0.6161518,6.0346985,7.591828,-0.107817635,-0.027794348,-0.08414663,0.3228913,-0.04162297,-0.19796081,-6.4125004,-3.1125002,-35.193752
1763129393038,-0.6161518,6.0346985,7.591828,-0.107817635,-0.027794348,-0.08414663,0.3228913,-0.04162297,-0.19796081,-6.4875,-1.03125,-34.85625
1763129393048,-0.6161518,6.0346985,7.591828,-0.110108376,-0.0074830935,-0.041538805,0.3228913,-0.04162297,-0.19796081,-6.4875,-1.03125,-34.85625
1763129393049,-0.88354975,5.9294147,7.630113,-0.110108376,-0.0074830935,-0.041538805,0.3228913,-0.04162297,-0.19796081,-6.4875,-1.03125,-34.85625
1763129393059,-0.88354975,5.9294147,7.630113,-0.110108376,-0.0074830935,-0.041538805,0.3218616,-0.041287757,-0.19839787,-6.4875,-1.03125,-34.85625
1763129393060,-0.88354975,5.9294147,7.630113,-0.110108376,-0.0074830935,-0.041538805,0.3218616,-0.041287757,-0.19839787,-5.86875,-0.90000004,-35.456253
1763129393070,-0.88354975,5.9294147,7.630113,-0.057115857,-0.07040217,0.020005822,0.3218616,-0.041287757,-0.19839787,-5.86875,-0.90000004,-35.456253
1763129393071,-0.85064846,5.9706907,7.722237,-0.057115857,-0.07040217,0.020005822,0.3218616,-0.041287757,-0.19839787,-5.86875,-0.90000004,-35.456253
1763129393078,-0.85064846,5.9706907,7.722237,-0.057115857,-0.07040217,0.020005822,0.3218616,-0.041287757,-0.19839787,-8.212501,-3.8437502,-34.912502
1763129393091,-0.85064846,5.9706907,7.722237,0.0051923506,-0.11560616,0.034208428,0.3218616,-0.041287757,-0.19839787,-8.212501,-3.8437502,-34.912502
1763129393092,-0.4833502,6.096912,7.7623167,0.0051923506,-0.11560616,0.034208428,0.3218616,-0.041287757,-0.19839787,-8.212501,-3.8437502,-34.912502
1763129393098,-0.4833502,6.096912,7.7623167,0.0051923506,-0.11560616,0.034208428,0.32128775,-0.041516423,-0.19931296,-8.212501,-3.8437502,-34.912502
1763129393099,-0.4833502,6.096912,7.7623167,0.0051923506,-0.11560616,0.034208428,0.32117188,-0.042376075,-0.2001431,-8.212501,-3.8437502,-34.912502
1763129393100,-0.4833502,6.096912,7.7623167,0.0051923506,-0.11560616,0.034208428,0.32117188,-0.042376075,-0.2001431,-6.3375,-1.9687501,-35.456253
1763129393111,-0.4833502,6.096912,7.7623167,-0.011300999,-0.041538805,-0.019394957,0.32117188,-0.042376075,-0.2001431,-6.3375,-1.9687501,-35.456253
1763129393112,-0.37986058,6.000003,7.9346,-0.011300999,-0.041538805,-0.019394957,0.32117188,-0.042376075,-0.2001431,-6.3375,-1.9687501,-35.456253
1763129393117,-0.37986058,6.000003,7.9346,-0.011300999,-0.041538805,-0.019394957,0.32110843,-0.04269246,-0.2003586,-6.3375,-1.9687501,-35.456253
1763129393118,-0.37986058,6.000003,7.9346,-0.011300999,-0.041538805,-0.019394957,0.32110843,-0.04269246,-0.2003586,-7.3875003,-1.725,-35.68125
1763129393132,-0.37986058,6.000003,7.9346,-0.05894845,0.07742711,-0.023060145,0.32110843,-0.04269246,-0.2003586,-7.3875003,-1.725,-35.68125
1763129393134,-0.6239285,5.8510494,7.795816,-0.05894845,0.07742711,-0.023060145,0.32110843,-0.04269246,-0.2003586,-7.3875003,-1.725,-35.68125
1763129393138,-0.6239285,5.8510494,7.795816,-0.05894845,0.07742711,-0.023060145,0.32052472,-0.041869618,-0.2001587,-7.3875003,-1.725,-35.68125
1763129393139,-0.6239285,5.8510494,7.795816,-0.05894845,0.07742711,-0.023060145,0.32052472,-0.041869618,-0.2001587,-7.36875,-1.0875001,-36.0
1763129393153,-0.6239285,5.8510494,7.795816,-0.058795735,0.041996952,0.013591741,0.32052472,-0.041869618,-0.2001587,-7.36875,-1.0875001,-36.0
1763129393154,-0.8967103,5.9324055,7.865806,-0.058795735,0.041996952,0.013591741,0.32052472,-0.041869618,-0.2001587,-7.36875,-1.0875001,-36.0
1763129393158,-0.8967103,5.9324055,7.865806,-0.058795735,0.041996952,0.013591741,0.31988445,-0.04124505,-0.20025289,-7.36875,-1.0875001,-36.0
1763129393159,-0.8967103,5.9324055,7.865806,-0.058795735,0.041996952,0.013591741,0.31988445,-0.04124505,-0.20025289,-7.0312505,-1.6500001,-35.15625
1763129393176,-0.75912297,5.877969,8.008179,-0.058795735,0.041996952,0.013591741,0.31988445,-0.04124505,-0.20025289,-7.0312505,-1.6500001,-35.15625
1763129393177,-0.75912297,5.877969,8.008179,0.04978548,0.0048869182,0.07742711,0.31988445,-0.04124505,-0.20025289,-7.0312505,-1.6500001,-35.15625
1763129393179,-0.75912297,5.877969,8.008179,0.04978548,0.0048869182,0.07742711,0.32027957,-0.041157823,-0.20040767,-7.0312505,-1.6500001,-35.15625
1763129393180,-0.75912297,5.877969,8.008179,0.04978548,0.0048869182,0.07742711,0.32027957,-0.041157823,-0.20040767,-6.1875005,-1.44375,-34.2
1763129393195,-0.75912297,5.877969,8.008179,0.15332706,-0.023212861,0.07880156,0.32027957,-0.041157823,-0.20040767,-6.1875005,-1.44375,-34.2
1763129393197,-0.4127619,6.0729837,7.859824,0.15332706,-0.023212861,0.07880156,0.32027957,-0.041157823,-0.20040767,-6.1875005,-1.44375,-34.2
1763129393198,-0.4127619,6.0729837,7.859824,0.15332706,-0.023212861,0.07880156,0.32132903,-0.0417067,-0.2004489,-6.1875005,-1.44375,-34.2
1763129393200,-0.4127619,6.0729837,7.859824,0.15332706,-0.023212861,0.07880156,0.32132903,-0.0417067,-0.2004489,-6.6375003,-2.5125,-34.95
1763129393218,-0.4127619,6.0729837,7.859824,0.15332706,-0.023212861,0.07880156,0.32305238,-0.042200018,-0.1998729,-6.6375003,-2.5125,-34.95
1763129393223,-0.4127619,6.0729837,7.859824,0.18661919,0.008093959,0.027030766,0.32305238,-0.042200018,-0.1998729,-6.6375003,-2.5125,-34.95
1763129393224,-0.4127619,6.0729837,7.859824,0.18661919,0.008093959,0.027030766,0.32305238,-0.042200018,-0.1998729,-6.1312504,-0.95625,-34.7625
1763129393225,-0.3074777,6.1190457,7.765308,0.18661919,0.008093959,0.027030766,0.32305238,-0.042200018,-0.1998729,-6.1312504,-0.95625,-34.7625
1763129393238,-0.3074777,6.1190457,7.765308,0.18661919,0.008093959,0.027030766,0.3246902,-0.041925203,-0.19906846,-6.1312504,-0.95625,-34.7625
1763129393240,-0.29970104,6.0364933,7.3728848,0.18661919,0.008093959,0.027030766,0.3246902,-0.041925203,-0.19906846,-6.1312504,-0.95625,-34.7625
1763129393241,-0.29970104,6.0364933,7.3728848,0.15256348,0.08384119,-7.6358096E-4,0.3246902,-0.041925203,-0.19906846,-6.1312504,-0.95625,-34.7625
1763129393242,-0.29970104,6.0364933,7.3728848,0.15256348,0.08384119,-7.6358096E-4,0.3246902,-0.041925203,-0.19906846,-6.76875,-1.5937501,-35.850002
1763129393259,-0.29970104,6.0364933,7.3728848,0.077579826,0.08170316,0.010231985,0.3246902,-0.041925203,-0.19906846,-6.76875,-1.5937501,-35.850002
1763129393259,-0.29970104,6.0364933,7.3728848,0.077579826,0.08170316,0.010231985,0.3258527,-0.041537378,-0.19802447,-6.76875,-1.5937501,-35.850002
1763129393261,-0.29970104,6.0364933,7.3728848,0.077579826,0.08170316,0.010231985,0.3258527,-0.041537378,-0.19802447,-5.6625004,-0.675,-35.15625
1763129393262,-0.43429732,6.055636,7.07438,0.077579826,0.08170316,0.010231985,0.3258527,-0.041537378,-0.19802447,-5.6625004,-0.675,-35.15625
1763129393277,-0.43429732,6.055636,7.07438,0.077579826,0.08170316,0.010231985,0.3258527,-0.041537378,-0.19802447,-8.512501,-3.43125,-35.568752
1763129393279,-0.53300124,6.033502,7.1916285,0.077579826,0.08170316,0.010231985,0.3258527,-0.041537378,-0.19802447,-8.512501,-3.43125,-35.568752
1763129393280,-0.53300124,6.033502,7.1916285,0.0013744457,0.037873615,0.0537561,0.3258527,-0.041537378,-0.19802447,-8.512501,-3.43125,-35.568752
1763129393281,-0.53300124,6.033502,7.1916285,0.0013744457,0.037873615,0.0537561,0.32651383,-0.041417204,-0.19690005,-8.512501,-3.43125,-35.568752
1763129393297,-0.53300124,6.033502,7.1916285,0.0013744457,0.037873615,0.0537561,0.32651383,-0.041417204,-0.19690005,-5.9812503,-1.8750001,-34.93125
1763129393301,-0.53300124,6.033502,7.1916285,0.0013744457,0.037873615,0.0537561,0.3268031,-0.04123377,-0.19560331,-5.9812503,-1.8750001,-34.93125
1763129393302,-0.53300124,6.033502,7.1916285,-0.022296565,0.044287696,0.10033454,0.3268031,-0.04123377,-0.19560331,-5.9812503,-1.8750001,-34.93125
1763129393304,-0.3906283,6.087341,7.4063845,-0.022296565,0.044287696,0.10033454,0.3268031,-0.04123377,-0.19560331,-5.9812503,-1.8750001,-34.93125
1763129393318,-0.3906283,6.087341,7.4063845,-0.022296565,0.044287696,0.10033454,0.3268031,-0.04123377,-0.19560331,-7.6687503,-3.2250001,-34.612503
1763129393321,-0.3906283,6.087341,7.4063845,-0.027488915,0.08170316,0.07086031,0.3268031,-0.04123377,-0.19560331,-7.6687503,-3.2250001,-34.612503
1763129393323,-0.3906283,6.087341,7.4063845,-0.027488915,0.08170316,0.07086031,0.32693863,-0.040748686,-0.19425742,-7.6687503,-3.2250001,-34.612503
1763129393324,-0.13579269,6.2488565,7.4416785,-0.027488915,0.08170316,0.07086031,0.32693863,-0.040748686,-0.19425742,-7.6687503,-3.2250001,-34.612503
1763129393338,-0.13579269,6.2488565,7.4416785,-0.027488915,0.08170316,0.07086031,0.32693863,-0.040748686,-0.19425742,-6.43125,-2.9437501,-35.081253
1763129393343,-0.13579269,6.2488565,7.4416785,-0.027488915,0.08170316,0.07086031,0.3270433,-0.04022459,-0.19279446,-6.43125,-2.9437501,-35.081253
1763129393344,-0.13579269,6.2488565,7.4416785,-0.04612029,0.085979216,0.0070249448,0.3270433,-0.04022459,-0.19279446,-6.43125,-2.9437501,-35.081253
1763129393345,-0.20279172,6.239285,7.328019,-0.04612029,0.085979216,0.0070249448,0.3270433,-0.04022459,-0.19279446,-6.43125,-2.9437501,-35.081253
1763129393359,-0.20279172,6.239285,7.328019,-0.04612029,0.085979216,0.0070249448,0.3270433,-0.04022459,-0.19279446,-7.4625,-2.86875,-35.4
1763129393363,-0.20279172,6.239285,7.328019,-0.07147118,0.045051277,-0.028710645,0.3270433,-0.04022459,-0.19279446,-7.4625,-2.86875,-35.4
1763129393364,-0.38165522,6.117251,7.304091,-0.07147118,0.045051277,-0.028710645,0.3270433,-0.04022459,-0.19279446,-7.4625,-2.86875,-35.4
1763129393365,-0.38165522,6.117251,7.304091,-0.07147118,0.045051277,-0.028710645,0.32695958,-0.039853286,-0.1919269,-7.4625,-2.86875,-35.4
1763129393377,-0.38165522,6.117251,7.304091,-0.07147118,0.045051277,-0.028710645,0.32695958,-0.039853286,-0.1919269,-5.34375,-0.43125,-33.45
1763129393385,-0.38165522,6.117251,7.304091,-0.07147118,0.045051277,-0.028710645,0.326268,-0.039131373,-0.19156002,-5.34375,-0.43125,-33.45
1763129393386,-0.38165522,6.117251,7.304091,-0.12812889,0.049174614,-0.032070402,0.326268,-0.039131373,-0.19156002,-5.34375,-0.43125,-33.45
1763129393387,-0.50069815,5.9880385,7.478169,-0.12812889,0.049174614,-0.032070402,0.326268,-0.039131373,-0.19156002,-5.34375,-0.43125,-33.45
1763129393398,-0.50069815,5.9880385,7.478169,-0.12812889,0.049174614,-0.032070402,0.326268,-0.039131373,-0.19156002,-5.3812504,0.01875,-35.100002
1763129393405,-0.50069815,5.9880385,7.478169,-0.15577053,0.08384119,-0.0129808765,0.326268,-0.039131373,-0.19156002,-5.3812504,0.01875,-35.100002
1763129393407,-0.67477596,6.009574,7.728817,-0.15577053,0.08384119,-0.0129808765,0.326268,-0.039131373,-0.19156002,-5.3812504,0.01875,-35.100002
1763129393419,-0.67477596,6.009574,7.728817,-0.15577053,0.08384119,-0.0129808765,0.3250871,-0.037989136,-0.19134952,-5.3812504,0.01875,-35.100002
1763129393420,-0.67477596,6.009574,7.728817,-0.15577053,0.08384119,-0.0129808765,0.3250871,-0.037989136,-0.19134952,-5.8500004,-1.0500001,-34.818752
1763129393426,-0.67477596,6.009574,7.728817,-0.0858265,0.07040217,0.010690134,0.3250871,-0.037989136,-0.19134952,-5.8500004,-1.0500001,-34.818752
1763129393427,-0.67118675,6.0041904,7.913663,-0.0858265,0.07040217,0.010690134,0.3250871,-0.037989136,-0.19134952,-5.8500004,-1.0500001,-34.818752
1763129393437,-0.67118675,6.0041904,7.913663,-0.0858265,0.07040217,0.010690134,0.32438317,-0.037036475,-0.191363,-5.8500004,-1.0500001,-34.818752
1763129393438,-0.67118675,6.0041904,7.913663,-0.0858265,0.07040217,0.010690134,0.32438317,-0.037036475,-0.191363,-5.925,-0.58125,-35.550003
1763129393447,-0.67118675,6.0041904,7.913663,0.020158539,0.027641632,0.0036651888,0.32438317,-0.037036475,-0.191363,-5.925,-0.58125,-35.550003
1763129393447,-0.5838487,6.0508504,7.7557364,0.020158539,0.027641632,0.0036651888,0.32438317,-0.037036475,-0.191363,-5.925,-0.58125,-35.550003
1763129393458,-0.5838487,6.0508504,7.7557364,0.020158539,0.027641632,0.0036651888,0.32442504,-0.036700424,-0.19160338,-5.925,-0.58125,-35.550003
1763129393459,-0.5838487,6.0508504,7.7557364,0.020158539,0.027641632,0.0036651888,0.32442504,-0.036700424,-0.19160338,-7.1250005,-1.1812501,-34.537502
1763129393468,-0.5838487,6.0508504,7.7557364,0.030237807,0.0073303776,-0.00641408,0.32442504,-0.036700424,-0.19160338,-7.1250005,-1.1812501,-34.537502
1763129393470,-0.54675996,6.0251274,7.6031938,0.030237807,0.0073303776,-0.00641408,0.32442504,-0.036700424,-0.19160338,-7.1250005,-1.1812501,-34.537502
1763129393478,-0.54675996,6.0251274,7.6031938,0.030237807,0.0073303776,-0.00641408,0.32472217,-0.03664027,-0.19169523,-7.1250005,-1.1812501,-34.537502
1763129393479,-0.54675996,6.0251274,7.6031938,0.030237807,0.0073303776,-0.00641408,0.32472217,-0.03664027,-0.19169523,-8.90625,-2.71875,-35.11875
1763129393489,-0.54675996,6.0251274,7.6031938,-0.023518294,0.043065965,-0.016493348,0.32472217,-0.03664027,-0.19169523,-8.90625,-2.71875,-35.11875
1763129393490,-0.4432704,6.047859,7.7180495,-0.023518294,0.043065965,-0.016493348,0.32472217,-0.03664027,-0.19169523,-8.90625,-2.71875,-35.11875
1763129393501,-0.4432704,6.047859,7.7180495,-0.023518294,0.043065965,-0.016493348,0.32472217,-0.03664027,-0.19169523,-8.700001,-2.49375,-34.2
1763129393503,-0.4432704,6.047859,7.7180495,-0.023518294,0.043065965,-0.016493348,0.32469094,-0.03612882,-0.19161257,-8.700001,-2.49375,-34.2
1763129393510,-0.4432704,6.047859,7.7180495,-0.034361143,0.09407318,-0.041538805,0.32469094,-0.03612882,-0.19161257,-8.700001,-2.49375,-34.2
1763129393511,-0.61076796,5.9904313,7.804191,-0.034361143,0.09407318,-0.041538805,0.32469094,-0.03612882,-0.19161257,-8.700001,-2.49375,-34.2
1763129393517,-0.61076796,5.9904313,7.804191,-0.034361143,0.09407318,-0.041538805,0.32455945,-0.035142336,-0.19136375,-8.700001,-2.49375,-34.2
1763129393518,-0.61076796,5.9904313,7.804191,-0.034361143,0.09407318,-0.041538805,0.32455945,-0.035142336,-0.19136375,-7.0125003,-1.8000001,-35.25
1763129393531,-0.61076796,5.9904313,7.804191,0.029626941,0.08093958,-0.022601997,0.32455945,-0.035142336,-0.19136375,-7.0125003,-1.8000001,-35.25
1763129393532,-0.82612205,5.9228344,7.6869426,0.029626941,0.08093958,-0.022601997,0.32455945,-0.035142336,-0.19136375,-7.0125003,-1.8000001,-35.25
1763129393538,-0.82612205,5.9228344,7.6869426,0.029626941,0.08093958,-0.022601997,0.32488167,-0.034314867,-0.19137128,-7.0125003,-1.8000001,-35.25
1763129393539,-0.82612205,5.9228344,7.6869426,0.029626941,0.08093958,-0.022601997,0.32488167,-0.034314867,-0.19137128,-6.9750004,-1.29375,-34.3125
1763129393553,-0.82612205,5.9228344,7.6869426,0.08933897,0.045051277,0.017715078,0.32488167,-0.034314867,-0.19137128,-6.9750004,-1.29375,-34.3125
1763129393554,-0.6412765,6.0191455,7.5661054,0.08933897,0.045051277,0.017715078,0.32488167,-0.034314867,-0.19137128,-6.9750004,-1.29375,-34.3125
1763129393559,-0.6412765,6.0191455,7.5661054,0.08933897,0.045051277,0.017715078,0.32575074,-0.033885825,-0.19159295,-6.9750004,-1.29375,-34.3125
1763129393560,-0.6412765,6.0191455,7.5661054,0.08933897,0.045051277,0.017715078,0.32575074,-0.033885825,-0.19159295,-6.0750003,-0.46875003,-35.79375
1763129393573,-0.6412765,6.0191455,7.5661054,0.066889696,0.05574141,0.019547673,0.32575074,-0.033885825,-0.19159295,-6.0750003,-0.46875003,-35.79375
1763129393575,-0.59700924,6.0364933,7.4273214,0.066889696,0.05574141,0.019547673,0.32575074,-0.033885825,-0.19159295,-6.0750003,-0.46875003,-35.79375
1763129393579,-0.59700924,6.0364933,7.4273214,0.066889696,0.05574141,0.019547673,0.32660252,-0.03350281,-0.1911796,-6.0750003,-0.46875003,-35.79375
1763129393580,-0.59700924,6.0364933,7.4273214,0.066889696,0.05574141,0.019547673,0.32660252,-0.03350281,-0.1911796,-6.05625,-0.46875003,-36.09375
1763129393595,-0.59700924,6.0364933,7.4273214,0.030237807,0.04963276,0.01924224,0.32660252,-0.03350281,-0.1911796,-6.05625,-0.46875003,-36.09375
1763129393596,-0.68255264,5.9880385,7.467401,0.030237807,0.04963276,0.01924224,0.32660252,-0.03350281,-0.1911796,-6.05625,-0.46875003,-36.09375
1763129393598,-0.68255264,5.9880385,7.467401,0.030237807,0.04963276,0.01924224,0.32660252,-0.03350281,-0.1911796,-4.8562503,-0.82500005,-35.325
1763129393599,-0.68255264,5.9880385,7.467401,0.030237807,0.04963276,0.01924224,0.32721993,-0.03317702,-0.19069509,-4.8562503,-0.82500005,-35.325
1763129393615,-0.68255264,5.9880385,7.467401,0.012370012,0.06597339,0.02565632,0.32721993,-0.03317702,-0.19069509,-4.8562503,-0.82500005,-35.325
1763129393617,-0.6652047,5.9784675,7.4356966,0.012370012,0.06597339,0.02565632,0.32721993,-0.03317702,-0.19069509,-4.8562503,-0.82500005,-35.325
1763129393618,-0.6652047,5.9784675,7.4356966,0.012370012,0.06597339,0.02565632,0.32759935,-0.032579854,-0.19028273,-4.8562503,-0.82500005,-35.325
1763129393619,-0.6652047,5.9784675,7.4356966,0.012370012,0.06597339,0.02565632,0.32759935,-0.032579854,-0.19028273,-5.9812503,-1.8750001,-34.93125
1763129393636,-0.6652047,5.9784675,7.4356966,0.0074830935,0.024740024,0.03054324,0.32759935,-0.032579854,-0.19028273,-5.9812503,-1.8750001,-34.93125
1763129393637,-0.7082755,6.047859,7.4913297,0.0074830935,0.024740024,0.03054324,0.32759935,-0.032579854,-0.19028273,-5.9812503,-1.8750001,-34.93125
1763129393638,-0.7082755,6.047859,7.4913297,0.0074830935,0.024740024,0.03054324,0.32785395,-0.0324235,-0.189964,-5.9812503,-1.8750001,-34.93125
1763129393639,-0.7082755,6.047859,7.4913297,0.0074830935,0.024740024,0.03054324,0.32785395,-0.0324235,-0.189964,-5.7000003,-1.9687501,-34.66875
1763129393659,-0.7082755,6.047859,7.4913297,0.0074830935,0.024740024,0.03054324,0.32818678,-0.03225368,-0.18955338,-5.7000003,-1.9687501,-34.66875
1763129393660,-0.7082755,6.047859,7.4913297,0.012064579,0.027183482,0.04367683,0.32818678,-0.03225368,-0.18955338,-5.7000003,-1.9687501,-34.66875
1763129393661,-0.6622137,5.994619,7.6348987,0.012064579,0.027183482,0.04367683,0.32818678,-0.03225368,-0.18955338,-5.7000003,-1.9687501,-34.66875
1763129393663,-0.6622137,5.994619,7.6348987,0.012064579,0.027183482,0.04367683,0.32818678,-0.03225368,-0.18955338,-5.4187503,-2.2125,-34.068752
1763129393678,-0.6622137,5.994619,7.6348987,0.012064579,0.027183482,0.04367683,0.32848245,-0.031977713,-0.1889201,-5.4187503,-2.2125,-34.068752
1763129393680,-0.6622137,5.994619,7.6348987,0.028405212,0.052381653,0.05864302,0.32848245,-0.031977713,-0.1889201,-5.4187503,-2.2125,-34.068752
1763129393681,-0.6448657,5.9838514,7.7180495,0.028405212,0.052381653,0.05864302,0.32848245,-0.031977713,-0.1889201,-5.4187503,-2.2125,-34.068752
1763129393682,-0.6448657,5.9838514,7.7180495,0.028405212,0.052381653,0.05864302,0.32848245,-0.031977713,-0.1889201,-6.4875,-3.43125,-34.21875
1763129393698,-0.6448657,5.9838514,7.7180495,0.028405212,0.052381653,0.05864302,0.32848245,-0.031977713,-0.1889201,-6.2250004,-2.7375002,-34.4625
1763129393700,-0.6448657,5.9838514,7.7180495,0.028405212,0.052381653,0.05864302,0.32901907,-0.031436905,-0.18788713,-6.2250004,-2.7375002,-34.4625
1763129393701,-0.6448657,5.9838514,7.7180495,0.058032155,0.093615025,0.07910699,0.32901907,-0.031436905,-0.18788713,-6.2250004,-2.7375002,-34.4625
1763129393703,-0.67178494,5.930611,7.7611203,0.058032155,0.093615025,0.07910699,0.32901907,-0.031436905,-0.18788713,-6.2250004,-2.7375002,-34.4625
1763129393718,-0.67178494,5.930611,7.7611203,0.058032155,0.093615025,0.07910699,0.32901907,-0.031436905,-0.18788713,-6.01875,-2.3812501,-35.568752
1763129393721,-0.67178494,5.930611,7.7611203,0.058032155,0.093615025,0.07910699,0.33009046,-0.03067114,-0.18635352,-6.01875,-2.3812501,-35.568752
1763129393722,-0.67178494,5.930611,7.7611203,0.11957678,0.14217877,0.12278382,0.33009046,-0.03067114,-0.18635352,-6.01875,-2.3812501,-35.568752
1763129393724,-0.73340017,5.881558,7.861619,0.11957678,0.14217877,0.12278382,0.33009046,-0.03067114,-0.18635352,-6.01875,-2.3812501,-35.568752
1763129393738,-0.73340017,5.881558,7.861619,0.11957678,0.14217877,0.12278382,0.33009046,-0.03067114,-0.18635352,-3.7875001,-0.26250002,-36.225002
1763129393744,-0.73340017,5.881558,7.861619,0.11957678,0.14217877,0.12278382,0.332052,-0.029322216,-0.18428165,-3.7875001,-0.26250002,-36.225002
1763129393745,-0.73340017,5.881558,7.861619,0.21731515,0.23365578,0.16615522,0.332052,-0.029322216,-0.18428165,-3.7875001,-0.26250002,-36.225002
1763129393746,-0.88354975,6.1005015,6.8709903,0.21731515,0.23365578,0.16615522,0.332052,-0.029322216,-0.18428165,-3.7875001,-0.26250002,-36.225002
1763129393758,-0.88354975,6.1005015,6.8709903,0.21731515,0.23365578,0.16615522,0.332052,-0.029322216,-0.18428165,-6.1125,-0.95625,-35.5125
1763129393762,-0.88354975,6.1005015,6.8709903,0.10415245,-0.026572619,0.08353576,0.332052,-0.029322216,-0.18428165,-6.1125,-0.95625,-35.5125
1763129393763,-0.88354975,6.1005015,6.8709903,0.10415245,-0.026572619,0.08353576,0.33374295,-0.029819803,-0.1837695,-6.1125,-0.95625,-35.5125
1763129393764,-0.70229346,6.485746,6.7848487,0.10415245,-0.026572619,0.08353576,0.33374295,-0.029819803,-0.1837695,-6.1125,-0.95625,-35.5125
1763129393778,-0.70229346,6.485746,6.7848487,0.10415245,-0.026572619,0.08353576,0.33374295,-0.029819803,-0.1837695,-6.2625003,-2.41875,-34.875
1763129393785,-0.70229346,6.485746,6.7848487,-0.1065959,-0.035124727,0.04978548,0.33374295,-0.029819803,-0.1837695,-6.2625003,-2.41875,-34.875
1763129393786,-0.70229346,6.485746,6.7848487,-0.1065959,-0.035124727,0.04978548,0.3339215,-0.030081598,-0.18297711,-6.2625003,-2.41875,-34.875
1763129393787,-0.51086766,6.117251,7.036693,-0.1065959,-0.035124727,0.04978548,0.3339215,-0.030081598,-0.18297711,-6.2625003,-2.41875,-34.875
1763129393797,-0.51086766,6.117251,7.036693,-0.1065959,-0.035124727,0.04978548,0.3339215,-0.030081598,-0.18297711,-5.7375,-1.81875,-34.275
1763129393804,-0.51086766,6.117251,7.036693,-0.21105379,-0.07284562,0.029779658,0.3339215,-0.030081598,-0.18297711,-5.7375,-1.81875,-34.275
1763129393805,-0.51086766,6.117251,7.036693,-0.21105379,-0.07284562,0.029779658,0.3322901,-0.030610193,-0.18253721,-5.7375,-1.81875,-34.275
1763129393805,-0.43429732,6.1944194,7.5678997,-0.21105379,-0.07284562,0.029779658,0.3322901,-0.030610193,-0.18253721,-5.7375,-1.81875,-34.275
1763129393818,-0.43429732,6.1944194,7.5678997,-0.21105379,-0.07284562,0.029779658,0.3322901,-0.030610193,-0.18253721,-5.90625,-0.73125005,-34.912502
1763129393825,-0.43429732,6.1944194,7.5678997,-0.17455462,-0.06062833,-0.017715078,0.3322901,-0.030610193,-0.18253721,-5.90625,-0.73125005,-34.912502
1763129393826,-0.6203393,6.128617,8.274381,-0.17455462,-0.06062833,-0.017715078,0.3322901,-0.030610193,-0.18253721,-5.90625,-0.73125005,-34.912502
1763129393838,-0.6203393,6.128617,8.274381,-0.17455462,-0.06062833,-0.017715078,0.3306275,-0.031012787,-0.18249598,-5.90625,-0.73125005,-34.912502
1763129393839,-0.6203393,6.128617,8.274381,-0.17455462,-0.06062833,-0.017715078,0.3306275,-0.031012787,-0.18249598,-12.450001,-4.8,-31.518751
1763129393846,-0.6203393,6.128617,8.274381,-0.04016436,-0.019547673,0.0061086477,0.3306275,-0.031012787,-0.18249598,-12.450001,-4.8,-31.518751
1763129393847,-0.8135597,5.8875403,8.109874,-0.04016436,-0.019547673,0.0061086477,0.3306275,-0.031012787,-0.18249598,-12.450001,-4.8,-31.518751
1763129393859,-0.8135597,5.8875403,8.109874,-0.04016436,-0.019547673,0.0061086477,0.32959,-0.031162271,-0.18276922,-12.450001,-4.8,-31.518751
1763129393860,-0.8135597,5.8875403,8.109874,-0.04016436,-0.019547673,0.0061086477,0.32959,-0.031162271,-0.18276922,-8.7375,-2.34375,-32.8875
1763129393868,-0.8135597,5.8875403,8.109874,0.08811724,0.012064579,0.012370012,0.32959,-0.031162271,-0.18276922,-8.7375,-2.34375,-32.8875
1763129393869,-0.6442675,6.1292152,7.8089767,0.08811724,0.012064579,0.012370012,0.32959,-0.031162271,-0.18276922,-8.7375,-2.34375,-32.8875
1763129393890,-0.6442675,6.1292152,7.8089767,0.08811724,0.012064579,0.012370012,0.32959,-0.031162271,-0.18276922,-6.5625005,-2.1750002,-35.325
1763129393890,-0.6442675,6.1292152,7.8089767,0.08811724,0.012064579,0.012370012,0.32975623,-0.031062499,-0.18338108,-6.5625005,-2.1750002,-35.325
1763129393891,-0.6047859,6.222535,7.4739814,0.08811724,0.012064579,0.012370012,0.32975623,-0.031062499,-0.18338108,-6.5625005,-2.1750002,-35.325
1763129393892,-0.6047859,6.222535,7.4739814,0.047494736,-0.00320704,-0.002290743,0.32975623,-0.031062499,-0.18338108,-6.5625005,-2.1750002,-35.325
