timestamp,accX,accY,accZ,gyroX,gyroY,gyroZ,rotX,rotY,rotZ,magX,magY,magZ
1763129416455,-0.5377869,7.5260253,5.323432,-0.14630212,-0.3197877,0.24083345,0.41481164,-0.03133731,-0.11053627,-4.3500004,-4.8562503,-34.256252
1763129416455,0.92482597,7.8610206,6.452246,-0.14630212,-0.3197877,0.24083345,0.41481164,-0.03133731,-0.11053627,-4.3500004,-4.8562503,-34.256252
1763129416457,0.92482597,7.8610206,6.452246,-0.14630212,-0.3197877,0.24083345,0.41319346,-0.035222795,-0.1097556,-4.3500004,-4.8562503,-34.256252
1763129416458,0.92482597,7.8610206,6.452246,-0.14630212,-0.3197877,0.24083345,0.41319346,-0.035222795,-0.1097556,-4.8,-6.0750003,-32.550003
1763129416476,0.92482597,7.8610206,6.452246,-0.228158,-0.0481056,0.06398808,0.41319346,-0.035222795,-0.1097556,-4.8,-6.0750003,-32.550003
1763129416477,1.0336994,7.9334035,6.7411795,-0.228158,-0.0481056,0.06398808,0.41319346,-0.035222795,-0.1097556,-4.8,-6.0750003,-32.550003
1763129416478,1.0336994,7.9334035,6.7411795,-0.228158,-0.0481056,0.06398808,0.41101345,-0.03581605,-0.108958036,-4.8,-6.0750003,-32.550003
1763129416479,1.0336994,7.9334035,6.7411795,-0.228158,-0.0481056,0.06398808,0.41101345,-0.03581605,-0.108958036,-11.6625,-5.71875,-30.73125
1763129416498,1.0336994,7.9334035,6.7411795,-0.228158,-0.0481056,0.06398808,0.40953386,-0.03505686,-0.108299956,-11.6625,-5.71875,-30.73125
1763129416499,1.0336994,7.9334035,6.7411795,-0.16768238,0.07086031,-0.009162972,0.40953386,-0.03505686,-0.108299956,-11.6625,-5.71875,-30.73125
1763129416500,0.51864433,7.856833,6.4911294,-0.16768238,0.07086031,-0.009162972,0.40953386,-0.03505686,-0.108299956,-11.6625,-5.71875,-30.73125
1763129416501,0.51864433,7.856833,6.4911294,-0.16768238,0.07086031,-0.009162972,0.40953386,-0.03505686,-0.108299956,-6.0750003,-3.0,-33.300003
1763129416518,0.51864433,7.856833,6.4911294,0.003970621,-0.02687805,0.011606431,0.40953386,-0.03505686,-0.108299956,-6.0750003,-3.0,-33.300003
1763129416519,0.51864433,7.856833,6.4911294,0.003970621,-0.02687805,0.011606431,0.40960604,-0.035451673,-0.10798951,-6.0750003,-3.0,-33.300003
1763129416519,0.51864433,7.856833,6.4911294,0.003970621,-0.02687805,0.011606431,0.40960604,-0.035451673,-0.10798951,-4.6312504,-4.4625,-35.9625
1763129416520,0.4642076,7.856235,6.3158555,0.003970621,-0.02687805,0.011606431,0.40960604,-0.035451673,-0.10798951,-4.6312504,-4.4625,-35.9625
1763129416538,0.4642076,7.856235,6.3158555,0.10445788,-0.08918626,-0.046273008,0.40960604,-0.035451673,-0.10798951,-4.6312504,-4.4625,-35.9625
1763129416539,0.4642076,7.856235,6.3158555,0.10445788,-0.08918626,-0.046273008,0.41060907,-0.03629526,-0.10847617,-4.6312504,-4.4625,-35.9625
1763129416540,0.4642076,7.856235,6.3158555,0.10445788,-0.08918626,-0.046273008,0.41060907,-0.03629526,-0.10847617,-5.6625004,-3.8812501,-34.143753
1763129416540,0.38644084,7.8017983,6.16092,0.10445788,-0.08918626,-0.046273008,0.41060907,-0.03629526,-0.10847617,-5.6625004,-3.8812501,-34.143753
1763129416557,0.38644084,7.8017983,6.16092,0.10445788,-0.08918626,-0.046273008,0.41060907,-0.03629526,-0.10847617,-7.3125005,-6.99375,-34.875
1763129416559,0.38644084,7.8017983,6.16092,0.016798781,-0.052076224,-0.113162704,0.41060907,-0.03629526,-0.10847617,-7.3125005,-6.99375,-34.875
1763129416559,0.38644084,7.8017983,6.16092,0.016798781,-0.052076224,-0.113162704,0.41086528,-0.03638865,-0.10949326,-7.3125005,-6.99375,-34.875
1763129416560,-0.02751746,7.4069824,6.0526447,0.016798781,-0.052076224,-0.113162704,0.41086528,-0.03638865,-0.10949326,-7.3125005,-6.99375,-34.875
1763129416579,-0.02751746,7.4069824,6.0526447,0.016798781,-0.052076224,-0.113162704,0.41086528,-0.03638865,-0.10949326,-5.4375,-3.6750002,-34.29375
1763129416581,-0.02751746,7.4069824,6.0526447,-0.13301581,-0.021991132,-0.08261946,0.41086528,-0.03638865,-0.10949326,-5.4375,-3.6750002,-34.29375
1763129416582,-0.02751746,7.4069824,6.0526447,-0.13301581,-0.021991132,-0.08261946,0.40969157,-0.036110204,-0.110315114,-5.4375,-3.6750002,-34.29375
1763129416583,-0.24586253,7.252047,6.093921,-0.13301581,-0.021991132,-0.08261946,0.40969157,-0.036110204,-0.110315114,-5.4375,-3.6750002,-34.29375
1763129416598,-0.24586253,7.252047,6.093921,-0.13301581,-0.021991132,-0.08261946,0.40969157,-0.036110204,-0.110315114,-3.99375,-3.16875,-33.54375
1763129416601,-0.24586253,7.252047,6.093921,-0.19318599,-0.055435978,-0.06459895,0.40969157,-0.036110204,-0.110315114,-3.99375,-3.16875,-33.54375
1763129416602,-0.24586253,7.252047,6.093921,-0.19318599,-0.055435978,-0.06459895,0.40788049,-0.036133822,-0.11122047,-3.99375,-3.16875,-33.54375
1763129416603,-0.28713873,7.2933235,6.315257,-0.19318599,-0.055435978,-0.06459895,0.40788049,-0.036133822,-0.11122047,-3.99375,-3.16875,-33.54375
1763129416620,-0.28713873,7.2933235,6.315257,-0.19318599,-0.055435978,-0.06459895,0.40788049,-0.036133822,-0.11122047,-3.4875002,-4.6687503,-33.300003
1763129416623,-0.28713873,7.2933235,6.315257,-0.19318599,-0.055435978,-0.06459895,0.40619498,-0.03629519,-0.11246717,-3.4875002,-4.6687503,-33.300003
1763129416624,-0.28713873,7.2933235,6.315257,-0.1753182,-0.07895427,-0.08857539,0.40619498,-0.03629519,-0.11246717,-3.4875002,-4.6687503,-33.300003
1763129416626,-0.25962126,7.239485,6.613762,-0.1753182,-0.07895427,-0.08857539,0.40619498,-0.03629519,-0.11246717,-3.4875002,-4.6687503,-33.300003
1763129416637,-0.25962126,7.239485,6.613762,-0.1753182,-0.07895427,-0.08857539,0.40619498,-0.03629519,-0.11246717,-5.25,-4.6125,-36.112503
1763129416643,-0.25962126,7.239485,6.613762,-0.12858704,-0.048411034,-0.099723674,0.40619498,-0.03629519,-0.11246717,-5.25,-4.6125,-36.112503
1763129416644,-0.25962126,7.239485,6.613762,-0.12858704,-0.048411034,-0.099723674,0.40493685,-0.0361782,-0.11367584,-5.25,-4.6125,-36.112503
1763129416644,-0.4833502,7.0061846,6.6646094,-0.12858704,-0.048411034,-0.099723674,0.40493685,-0.0361782,-0.11367584,-5.25,-4.6125,-36.112503
1763129416657,-0.4833502,7.0061846,6.6646094,-0.12858704,-0.048411034,-0.099723674,0.40493685,-0.0361782,-0.11367584,-4.70625,-4.2937503,-33.600002
1763129416665,-0.4833502,7.0061846,6.6646094,-0.12858704,-0.048411034,-0.099723674,0.4040693,-0.035938043,-0.11442356,-4.70625,-4.2937503,-33.600002
1763129416665,-0.4833502,7.0061846,6.6646094,-0.08613193,-0.014202606,-0.05818487,0.4040693,-0.035938043,-0.11442356,-4.70625,-4.2937503,-33.600002
1763129416666,-0.63948184,6.930811,6.658627,-0.08613193,-0.014202606,-0.05818487,0.4040693,-0.035938043,-0.11442356,-4.70625,-4.2937503,-33.600002
1763129416678,-0.63948184,6.930811,6.658627,-0.08613193,-0.014202606,-0.05818487,0.4040693,-0.035938043,-0.11442356,-4.4625,-4.2375,-32.79375
1763129416686,-0.63948184,6.930811,6.658627,-0.054061532,0.020005822,0.0021380268,0.4040693,-0.035938043,-0.11442356,-4.4625,-4.2375,-32.79375
1763129416687,-0.5084748,7.0193453,6.5479593,-0.054061532,0.020005822,0.0021380268,0.4040693,-0.035938043,-0.11442356,-4.4625,-4.2375,-32.79375
1763129416698,-0.5084748,7.0193453,6.5479593,-0.054061532,0.020005822,0.0021380268,0.40351877,-0.035648987,-0.114499435,-4.4625,-4.2375,-32.79375
1763129416699,-0.5084748,7.0193453,6.5479593,-0.054061532,0.020005822,0.0021380268,0.40351877,-0.035648987,-0.114499435,-5.30625,-4.4437504,-33.75
1763129416706,-0.5084748,7.0193453,6.5479593,-0.056352276,0.023060145,0.01725693,0.40351877,-0.035648987,-0.114499435,-5.30625,-4.4437504,-33.75
1763129416707,-0.26620153,7.2041907,6.390033,-0.056352276,0.023060145,0.01725693,0.40351877,-0.035648987,-0.114499435,-5.30625,-4.4437504,-33.75
1763129416718,-0.26620153,7.2041907,6.390033,-0.056352276,0.023060145,0.01725693,0.4029793,-0.035408277,-0.114357516,-5.30625,-4.4437504,-33.75
1763129416720,-0.26620153,7.2041907,6.390033,-0.056352276,0.023060145,0.01725693,0.4029793,-0.035408277,-0.114357516,-9.075001,-6.7312503,-30.768751
1763129416727,-0.26620153,7.2041907,6.390033,-0.056046844,-0.01802051,-0.0,0.4029793,-0.035408277,-0.114357516,-9.075001,-6.7312503,-30.768751
1763129416728,-0.2219343,7.2532434,6.535397,-0.056046844,-0.01802051,-0.0,0.4029793,-0.035408277,-0.114357516,-9.075001,-6.7312503,-30.768751
1763129416737,-0.2219343,7.2532434,6.535397,-0.056046844,-0.01802051,-0.0,0.4029793,-0.035408277,-0.114357516,-4.2937503,-4.36875,-34.068752
1763129416738,-0.2219343,7.2532434,6.535397,-0.056046844,-0.01802051,-0.0,0.4024551,-0.03551247,-0.114444226,-4.2937503,-4.36875,-34.068752
1763129416749,-0.2219343,7.2532434,6.535397,-0.041691523,-0.011759147,-0.01282816,0.4024551,-0.03551247,-0.114444226,-4.2937503,-4.36875,-34.068752
1763129416750,-0.2644069,7.2245297,6.579066,-0.041691523,-0.011759147,-0.01282816,0.4024551,-0.03551247,-0.114444226,-4.2937503,-4.36875,-34.068752
1763129416760,-0.2644069,7.2245297,6.579066,-0.041691523,-0.011759147,-0.01282816,0.40206403,-0.03552544,-0.11460732,-4.2937503,-4.36875,-34.068752
1763129416762,-0.2644069,7.2245297,6.579066,-0.041691523,-0.011759147,-0.01282816,0.40206403,-0.03552544,-0.11460732,-3.825,-3.45,-33.7125
1763129416770,-0.2644069,7.2245297,6.579066,-0.049480047,4.581486E-4,-0.015882485,0.40206403,-0.03552544,-0.11460732,-3.825,-3.45,-33.7125
1763129416771,-0.24526432,7.285547,6.512067,-0.049480047,4.581486E-4,-0.015882485,0.40206403,-0.03552544,-0.11460732,-3.825,-3.45,-33.7125
1763129416779,-0.24526432,7.285547,6.512067,-0.049480047,4.581486E-4,-0.015882485,0.40160492,-0.035394732,-0.1147701,-3.825,-3.45,-33.7125
1763129416779,-0.24526432,7.285547,6.512067,-0.049480047,4.581486E-4,-0.015882485,0.40160492,-0.035394732,-0.1147701,-3.43125,-4.3125,-32.925003
1763129416791,-0.24526432,7.285547,6.512067,-0.07192933,-0.017562363,-0.021074835,0.40160492,-0.035394732,-0.1147701,-3.43125,-4.3125,-32.925003
1763129416792,-0.19980069,7.29452,6.5288167,-0.07192933,-0.017562363,-0.021074835,0.40160492,-0.035394732,-0.1147701,-3.43125,-4.3125,-32.925003
1763129416797,-0.19980069,7.29452,6.5288167,-0.07192933,-0.017562363,-0.021074835,0.4009361,-0.03538967,-0.115050375,-3.43125,-4.3125,-32.925003
1763129416798,-0.19980069,7.29452,6.5288167,-0.07192933,-0.017562363,-0.021074835,0.4009361,-0.03538967,-0.115050375,-3.7875001,-4.275,-35.775
1763129416812,-0.19980069,7.29452,6.5288167,-0.057115857,-0.043218683,-0.020616686,0.4009361,-0.03538967,-0.115050375,-3.7875001,-4.275,-35.775
1763129416812,-0.07537391,7.3663044,6.518049,-0.057115857,-0.043218683,-0.020616686,0.4009361,-0.03538967,-0.115050375,-3.7875001,-4.275,-35.775
1763129416818,-0.07537391,7.3663044,6.518049,-0.057115857,-0.043218683,-0.020616686,0.40037856,-0.035654135,-0.115412176,-3.7875001,-4.275,-35.775
1763129416819,-0.07537391,7.3663044,6.518049,-0.057115857,-0.043218683,-0.020616686,0.40037856,-0.035654135,-0.115412176,-4.425,-3.6000001,-33.862503
1763129416833,-0.07537391,7.3663044,6.518049,-0.04978548,-0.08796453,-0.083383046,0.40037856,-0.035654135,-0.115412176,-4.425,-3.6000001,-33.862503
1763129416834,0.062213387,7.475178,6.3661046,-0.04978548,-0.08796453,-0.083383046,0.40037856,-0.035654135,-0.115412176,-4.425,-3.6000001,-33.862503
1763129416838,0.062213387,7.475178,6.3661046,-0.04978548,-0.08796453,-0.083383046,0.39987347,-0.036104385,-0.11650571,-4.425,-3.6000001,-33.862503
1763129416839,0.062213387,7.475178,6.3661046,-0.04978548,-0.08796453,-0.083383046,0.39987347,-0.036104385,-0.11650571,-5.55,-6.9187503,-34.21875
1763129416854,0.062213387,7.475178,6.3661046,-0.13133593,-0.108886644,-0.18157956,0.39987347,-0.036104385,-0.11650571,-5.55,-6.9187503,-34.21875
1763129416855,-0.086141616,7.3776703,6.227321,-0.13133593,-0.108886644,-0.18157956,0.39987347,-0.036104385,-0.11650571,-5.55,-6.9187503,-34.21875
1763129416859,-0.086141616,7.3776703,6.227321,-0.13133593,-0.108886644,-0.18157956,0.39864805,-0.036259595,-0.118581854,-5.55,-6.9187503,-34.21875
1763129416860,-0.086141616,7.3776703,6.227321,-0.13133593,-0.108886644,-0.18157956,0.39864805,-0.036259595,-0.118581854,-3.7500002,-2.8125,-36.45
1763129416874,-0.086141616,7.3776703,6.227321,-0.24129158,-0.110108376,-0.17989968,0.39864805,-0.036259595,-0.118581854,-3.7500002,-2.8125,-36.45
1763129416875,-0.4564309,7.1222367,6.2518473,-0.24129158,-0.110108376,-0.17989968,0.39864805,-0.036259595,-0.118581854,-3.7500002,-2.8125,-36.45
1763129416877,-0.4564309,7.1222367,6.2518473,-0.24129158,-0.110108376,-0.17989968,0.39639053,-0.036279503,-0.120733134,-3.7500002,-2.8125,-36.45
1763129416878,-0.4564309,7.1222367,6.2518473,-0.24129158,-0.110108376,-0.17989968,0.39639053,-0.036279503,-0.120733134,-5.55,-4.5,-34.85625
1763129416896,-0.4564309,7.1222367,6.2518473,-0.3028362,-0.13683371,-0.15210533,0.39639053,-0.036279503,-0.120733134,-5.55,-4.5,-34.85625
1763129416897,-0.41994038,7.0953174,6.524629,-0.3028362,-0.13683371,-0.15210533,0.39639053,-0.036279503,-0.120733134,-5.55,-4.5,-34.85625
1763129416898,-0.41994038,7.0953174,6.524629,-0.3028362,-0.13683371,-0.15210533,0.39347085,-0.03654745,-0.12289933,-5.55,-4.5,-34.85625
1763129416899,-0.41994038,7.0953174,6.524629,-0.3028362,-0.13683371,-0.15210533,0.39347085,-0.03654745,-0.12289933,-3.16875,-2.6625001,-34.800003
1763129416918,-0.41994038,7.0953174,6.524629,-0.30558512,-0.13927718,-0.17501275,0.39347085,-0.03654745,-0.12289933,-3.16875,-2.6625001,-34.800003
1763129416920,-0.41994038,7.0953174,6.524629,-0.30558512,-0.13927718,-0.17501275,0.39347085,-0.03654745,-0.12289933,-5.8875003,-3.9375002,-35.268753
1763129416921,-0.41994038,7.0953174,6.524629,-0.30558512,-0.13927718,-0.17501275,0.3904878,-0.03674589,-0.12528956,-5.8875003,-3.9375002,-35.268753
1763129416922,-0.35294133,7.0695944,6.8835526,-0.30558512,-0.13927718,-0.17501275,0.3904878,-0.03674589,-0.12528956,-5.8875003,-3.9375002,-35.268753
1763129416939,-0.21535404,6.9726853,7.1389866,-0.30558512,-0.13927718,-0.17501275,0.3904878,-0.03674589,-0.12528956,-5.8875003,-3.9375002,-35.268753
1763129416940,-0.21535404,6.9726853,7.1389866,-0.22937973,-0.14462224,-0.18325943,0.3904878,-0.03674589,-0.12528956,-5.8875003,-3.9375002,-35.268753
1763129416941,-0.21535404,6.9726853,7.1389866,-0.22937973,-0.14462224,-0.18325943,0.38816884,-0.037071485,-0.12774031,-5.8875003,-3.9375002,-35.268753
1763129416943,-0.21535404,6.9726853,7.1389866,-0.22937973,-0.14462224,-0.18325943,0.38816884,-0.037071485,-0.12774031,-5.4750004,-3.2250001,-36.54375
1763129416958,-0.21535404,6.9726853,7.1389866,-0.22937973,-0.14462224,-0.18325943,0.38816884,-0.037071485,-0.12774031,-3.61875,-3.7500002,-35.550003
1763129416959,-0.21535404,6.9726853,7.1389866,-0.17699806,-0.11499529,-0.20998476,0.38816884,-0.037071485,-0.12774031,-3.61875,-3.7500002,-35.550003
1763129416961,-0.21535404,6.9726853,7.1389866,-0.17699806,-0.11499529,-0.20998476,0.38634294,-0.037094403,-0.13026626,-3.61875,-3.7500002,-35.550003
1763129416964,-0.23449662,6.9744797,7.097112,-0.17699806,-0.11499529,-0.20998476,0.38634294,-0.037094403,-0.13026626,-3.61875,-3.7500002,-35.550003
1763129416977,-0.23449662,6.9744797,7.097112,-0.17699806,-0.11499529,-0.20998476,0.38634294,-0.037094403,-0.13026626,-3.9562502,-3.3375,-33.956253
1763129416980,-0.23449662,6.9744797,7.097112,-0.17699806,-0.11499529,-0.20998476,0.38462505,-0.036373567,-0.13244458,-3.9562502,-3.3375,-33.956253
1763129416981,-0.23449662,6.9744797,7.097112,-0.1782198,-0.036651887,-0.20769402,0.38462505,-0.036373567,-0.13244458,-3.9562502,-3.3375,-33.956253
1763129416982,-0.60658056,6.806384,6.8805614,-0.1782198,-0.036651887,-0.20769402,0.38462505,-0.036373567,-0.13244458,-3.9562502,-3.3375,-33.956253
1763129416997,-0.60658056,6.806384,6.8805614,-0.1782198,-0.036651887,-0.20769402,0.38462505,-0.036373567,-0.13244458,-3.7687502,-2.8125,-34.93125
1763129417000,-0.68135625,6.716055,6.6969123,-0.1782198,-0.036651887,-0.20769402,0.38462505,-0.036373567,-0.13244458,-3.7687502,-2.8125,-34.93125
1763129417002,-0.68135625,6.716055,6.6969123,-0.19700389,-0.02565632,-0.14355323,0.38462505,-0.036373567,-0.13244458,-3.7687502,-2.8125,-34.93125
1763129417019,-0.68135625,6.716055,6.6969123,-0.19700389,-0.02565632,-0.14355323,0.38462505,-0.036373567,-0.13244458,-5.11875,-4.7250004,-34.66875
1763129417022,-0.68135625,6.716055,6.6969123,-0.19807291,-0.03054324,-0.06597339,0.38462505,-0.036373567,-0.13244458,-5.11875,-4.7250004,-34.66875
1763129417023,-0.68135625,6.716055,6.6969123,-0.19807291,-0.03054324,-0.06597339,0.38265744,-0.035563473,-0.13464558,-5.11875,-4.7250004,-34.66875
1763129417024,-0.68135625,6.716055,6.6969123,-0.19807291,-0.03054324,-0.06597339,0.38082626,-0.035049327,-0.13622011,-5.11875,-4.7250004,-34.66875
1763129417025,-0.4223332,6.7537417,6.818348,-0.19807291,-0.03054324,-0.06597339,0.38082626,-0.035049327,-0.13622011,-5.11875,-4.7250004,-34.66875
1763129417038,-0.4223332,6.7537417,6.818348,-0.19807291,-0.03054324,-0.06597339,0.38082626,-0.035049327,-0.13622011,-5.0062504,-2.4375,-33.881252
1763129417044,-0.4223332,6.7537417,6.818348,-0.15302163,-0.034208428,-0.033597562,0.38082626,-0.035049327,-0.13622011,-5.0062504,-2.4375,-33.881252
1763129417045,-0.4223332,6.7537417,6.818348,-0.15302163,-0.034208428,-0.033597562,0.37932333,-0.03499006,-0.13683486,-5.0062504,-2.4375,-33.881252
1763129417046,-0.15792629,6.860821,7.0265236,-0.15302163,-0.034208428,-0.033597562,0.37932333,-0.03499006,-0.13683486,-5.0062504,-2.4375,-33.881252
1763129417057,-0.15792629,6.860821,7.0265236,-0.15302163,-0.034208428,-0.033597562,0.37932333,-0.03499006,-0.13683486,-4.3500004,-2.4562502,-34.143753
1763129417064,-0.15792629,6.860821,7.0265236,-0.15302163,-0.034208428,-0.033597562,0.37850785,-0.035024293,-0.13678104,-4.3500004,-2.4562502,-34.143753
1763129417065,-0.15792629,6.860821,7.0265236,-0.07192933,-0.011453714,-0.043065965,0.37850785,-0.035024293,-0.13678104,-4.3500004,-2.4562502,-34.143753
1763129417066,-0.038285162,6.942177,6.878767,-0.07192933,-0.011453714,-0.043065965,0.37850785,-0.035024293,-0.13678104,-4.3500004,-2.4562502,-34.143753
1763129417077,-0.038285162,6.942177,6.878767,-0.07192933,-0.011453714,-0.043065965,0.37850785,-0.035024293,-0.13678104,-4.9500003,-2.7562501,-34.0875
1763129417085,-0.038285162,6.942177,6.878767,-0.07192933,-0.011453714,-0.043065965,0.37816972,-0.03500495,-0.13649622,-4.9500003,-2.7562501,-34.0875
1763129417086,-0.038285162,6.942177,6.878767,-0.051618073,-0.0016798781,-0.06536253,0.37816972,-0.03500495,-0.13649622,-4.9500003,-2.7562501,-34.0875
1763129417087,-0.22791636,6.9451675,6.652047,-0.051618073,-0.0016798781,-0.06536253,0.37816972,-0.03500495,-0.13649622,-4.9500003,-2.7562501,-34.0875
1763129417098,-0.22791636,6.9451675,6.652047,-0.051618073,-0.0016798781,-0.06536253,0.37816972,-0.03500495,-0.13649622,-6.0375004,-3.0187502,-35.100002
1763129417106,-0.22791636,6.9451675,6.652047,-0.09834923,0.0019853106,-0.04382955,0.37816972,-0.03500495,-0.13649622,-6.0375004,-3.0187502,-35.100002
1763129417107,-0.36729828,6.8835526,6.5718875,-0.09834923,0.0019853106,-0.04382955,0.37816972,-0.03500495,-0.13649622,-6.0375004,-3.0187502,-35.100002
1763129417119,-0.36729828,6.8835526,6.5718875,-0.09834923,0.0019853106,-0.04382955,0.37769297,-0.03478892,-0.13635261,-6.0375004,-3.0187502,-35.100002
1763129417120,-0.36729828,6.8835526,6.5718875,-0.09834923,0.0019853106,-0.04382955,0.37769297,-0.03478892,-0.13635261,-3.7125,-2.4750001,-34.55625
1763129417128,-0.36729828,6.8835526,6.5718875,-0.13744457,-0.0019853106,-0.009315688,0.37769297,-0.03478892,-0.13635261,-3.7125,-2.4750001,-34.55625
1763129417129,-0.18005991,6.923632,6.7561345,-0.13744457,-0.0019853106,-0.009315688,0.37769297,-0.03478892,-0.13635261,-3.7125,-2.4750001,-34.55625
1763129417138,-0.18005991,6.923632,6.7561345,-0.13744457,-0.0019853106,-0.009315688,0.37689096,-0.034577765,-0.13627046,-3.7125,-2.4750001,-34.55625
1763129417139,-0.18005991,6.923632,6.7561345,-0.13744457,-0.0019853106,-0.009315688,0.37689096,-0.034577765,-0.13627046,-5.9625,-4.275,-34.74375
1763129417148,-0.18005991,6.923632,6.7561345,-0.15042545,-0.014813471,-0.028710645,0.37689096,-0.034577765,-0.13627046,-5.9625,-4.275,-34.74375
1763129417149,-0.084346995,6.99781,6.9038916,-0.15042545,-0.014813471,-0.028710645,0.37689096,-0.034577765,-0.13627046,-5.9625,-4.275,-34.74375
1763129417157,-0.084346995,6.99781,6.9038916,-0.15042545,-0.014813471,-0.028710645,0.37579572,-0.034571055,-0.13603005,-5.9625,-4.275,-34.74375
1763129417158,-0.084346995,6.99781,6.9038916,-0.15042545,-0.014813471,-0.028710645,0.37579572,-0.034571055,-0.13603005,-3.61875,-1.35,-36.1875
1763129417169,-0.084346995,6.99781,6.9038916,-0.1472184,-0.004581486,-0.06994402,0.37579572,-0.034571055,-0.13603005,-3.61875,-1.35,-36.1875
1763129417170,-0.22013968,6.9212394,6.9613194,-0.1472184,-0.004581486,-0.06994402,0.37579572,-0.034571055,-0.13603005,-3.61875,-1.35,-36.1875
1763129417178,-0.22013968,6.9212394,6.9613194,-0.1472184,-0.004581486,-0.06994402,0.37470248,-0.03438217,-0.13587381,-3.61875,-1.35,-36.1875
1763129417179,-0.22013968,6.9212394,6.9613194,-0.1472184,-0.004581486,-0.06994402,0.37470248,-0.03438217,-0.13587381,-5.45625,-3.3750002,-35.8875
1763129417190,-0.22013968,6.9212394,6.9613194,-0.1357647,-0.012370012,-0.07971785,0.37470248,-0.03438217,-0.13587381,-5.45625,-3.3750002,-35.8875
1763129417191,-0.46899325,6.7298136,7.0618176,-0.1357647,-0.012370012,-0.07971785,0.37470248,-0.03438217,-0.13587381,-5.45625,-3.3750002,-35.8875
1763129417198,-0.46899325,6.7298136,7.0618176,-0.1357647,-0.012370012,-0.07971785,0.3736118,-0.034143716,-0.13624555,-5.45625,-3.3750002,-35.8875
1763129417199,-0.46899325,6.7298136,7.0618176,-0.1357647,-0.012370012,-0.07971785,0.3736118,-0.034143716,-0.13624555,-4.9875,-2.4562502,-34.93125
1763129417211,-0.46899325,6.7298136,7.0618176,-0.101708986,-0.0012217296,-0.042302385,0.3736118,-0.034143716,-0.13624555,-4.9875,-2.4562502,-34.93125
1763129417212,-0.47976094,6.600601,7.04447,-0.101708986,-0.0012217296,-0.042302385,0.3736118,-0.034143716,-0.13624555,-4.9875,-2.4562502,-34.93125
1763129417219,-0.47976094,6.600601,7.04447,-0.101708986,-0.0012217296,-0.042302385,0.3725824,-0.033763397,-0.13688955,-4.9875,-2.4562502,-34.93125
1763129417220,-0.47976094,6.600601,7.04447,-0.101708986,-0.0012217296,-0.042302385,0.3725824,-0.033763397,-0.13688955,-4.74375,-2.4,-34.875
1763129417231,-0.47976094,6.600601,7.04447,-0.046273008,-0.008552107,-0.0140498895,0.3725824,-0.033763397,-0.13688955,-4.74375,-2.4,-34.875
1763129417233,-0.31944183,6.6921268,7.186843,-0.046273008,-0.008552107,-0.0140498895,0.3725824,-0.033763397,-0.13688955,-4.74375,-2.4,-34.875
1763129417237,-0.31944183,6.6921268,7.186843,-0.046273008,-0.008552107,-0.0140498895,0.37195447,-0.033648986,-0.13737741,-4.74375,-2.4,-34.875
1763129417239,-0.31944183,6.6921268,7.186843,-0.046273008,-0.008552107,-0.0140498895,0.37195447,-0.033648986,-0.13737741,-5.5125003,-3.2062502,-34.29375
1763129417252,-0.31944183,6.6921268,7.186843,0.011911863,0.050090913,-0.032070402,0.37195447,-0.033648986,-0.13737741,-5.5125003,-3.2062502,-34.29375
1763129417254,-0.24526432,6.7441707,7.033104,0.011911863,0.050090913,-0.032070402,0.37195447,-0.033648986,-0.13737741,-5.5125003,-3.2062502,-34.29375
1763129417259,-0.24526432,6.7441707,7.033104,0.011911863,0.050090913,-0.032070402,0.371902,-0.033134293,-0.13736255,-5.5125003,-3.2062502,-34.29375
1763129417260,-0.24526432,6.7441707,7.033104,0.011911863,0.050090913,-0.032070402,0.371902,-0.033134293,-0.13736255,-3.9375002,-2.53125,-35.662502
1763129417273,-0.24526432,6.7441707,7.033104,0.04978548,0.030390523,-0.032070402,0.371902,-0.033134293,-0.13736255,-3.9375002,-2.53125,-35.662502
1763129417274,-0.43848476,6.7764735,7.100103,0.04978548,0.030390523,-0.032070402,0.371902,-0.033134293,-0.13736255,-3.9375002,-2.53125,-35.662502
1763129417278,-0.43848476,6.7764735,7.100103,0.04978548,0.030390523,-0.032070402,0.371902,-0.033134293,-0.13736255,-3.6562502,-1.1812501,-35.34375
1763129417279,-0.43848476,6.7764735,7.100103,0.04978548,0.030390523,-0.032070402,0.37239638,-0.032922667,-0.13711655,-3.6562502,-1.1812501,-35.34375
1763129417295,-0.43848476,6.7764735,7.100103,0.06017018,0.07238748,-0.023823727,0.37239638,-0.032922667,-0.13711655,-3.6562502,-1.1812501,-35.34375
1763129417296,-0.4755735,6.683752,7.1623163,0.06017018,0.07238748,-0.023823727,0.37239638,-0.032922667,-0.13711655,-3.6562502,-1.1812501,-35.34375
1763129417298,-0.4755735,6.683752,7.1623163,0.06017018,0.07238748,-0.023823727,0.3730191,-0.032201286,-0.13708885,-3.6562502,-1.1812501,-35.34375
1763129417299,-0.4755735,6.683752,7.1623163,0.06017018,0.07238748,-0.023823727,0.3730191,-0.032201286,-0.13708885,-4.05,-1.10625,-35.325
1763129417315,-0.4755735,6.683752,7.1623163,0.032375835,0.12996148,-0.004734202,0.3730191,-0.032201286,-0.13708885,-4.05,-1.10625,-35.325
1763129417316,-0.5168497,6.7058854,6.931409,0.032375835,0.12996148,-0.004734202,0.3730191,-0.032201286,-0.13708885,-4.05,-1.10625,-35.325
1763129417317,-0.5168497,6.7058854,6.931409,0.032375835,0.12996148,-0.004734202,0.3732679,-0.030942125,-0.13677116,-4.05,-1.10625,-35.325
1763129417318,-0.5168497,6.7058854,6.931409,0.032375835,0.12996148,-0.004734202,0.3732679,-0.030942125,-0.13677116,-6.9,-3.8625002,-36.037502
1763129417338,-0.5168497,6.7058854,6.931409,0.016187917,0.06551525,0.009162972,0.3732679,-0.030942125,-0.13677116,-6.9,-3.8625002,-36.037502
1763129417340,-0.5168497,6.7058854,6.931409,0.016187917,0.06551525,0.009162972,0.37355158,-0.030311737,-0.13658226,-6.9,-3.8625002,-36.037502
1763129417341,-0.5168497,6.7058854,6.931409,0.016187917,0.06551525,0.009162972,0.37355158,-0.030311737,-0.13658226,-6.675,-5.4187503,-35.100002
1763129417343,-0.51505506,6.8303123,6.875776,0.016187917,0.06551525,0.009162972,0.37355158,-0.030311737,-0.13658226,-6.675,-5.4187503,-35.100002
1763129417359,-0.51505506,6.8303123,6.875776,0.010079269,0.0481056,-0.014508039,0.37355158,-0.030311737,-0.13658226,-6.675,-5.4187503,-35.100002
1763129417360,-0.51505506,6.8303123,6.875776,0.010079269,0.0481056,-0.014508039,0.37395653,-0.029757068,-0.1365686,-6.675,-5.4187503,-35.100002
1763129417361,-0.51505506,6.8303123,6.875776,0.010079269,0.0481056,-0.014508039,0.37395653,-0.029757068,-0.1365686,-5.2125,-3.4687502,-34.875
1763129417363,-0.33200413,6.8279195,6.998408,0.010079269,0.0481056,-0.014508039,0.37395653,-0.029757068,-0.1365686,-5.2125,-3.4687502,-34.875
1763129417379,-0.33200413,6.8279195,6.998408,0.010079269,0.0481056,-0.014508039,0.37411767,-0.029038087,-0.13631761,-5.2125,-3.4687502,-34.875
1763129417379,-0.33200413,6.8279195,6.998408,-0.0010690134,0.06918044,-0.044287696,0.37411767,-0.029038087,-0.13631761,-5.2125,-3.4687502,-34.875
1763129417381,-0.33200413,6.8279195,6.998408,-0.0010690134,0.06918044,-0.044287696,0.37411767,-0.029038087,-0.13631761,-5.9625,-4.275,-34.74375
1763129417383,-0.40977088,6.800402,7.0576305,-0.0010690134,0.06918044,-0.044287696,0.37411767,-0.029038087,-0.13631761,-5.9625,-4.275,-34.74375
1763129417397,-0.40977088,6.800402,7.0576305,-0.0010690134,0.06918044,-0.044287696,0.37411767,-0.029038087,-0.13631761,-4.96875,-2.4562502,-35.68125
1763129417399,-0.5916254,6.7322063,6.9858456,-0.0010690134,0.06918044,-0.044287696,0.37411767,-0.029038087,-0.13631761,-4.96875,-2.4562502,-35.68125
1763129417400,-0.5916254,6.7322063,6.9858456,0.012370012,0.07803798,-0.032833982,0.37411767,-0.029038087,-0.13631761,-4.96875,-2.4562502,-35.68125
1763129417401,-0.5916254,6.7322063,6.9858456,0.012370012,0.07803798,-0.032833982,0.37432137,-0.028247003,-0.13612409,-4.96875,-2.4562502,-35.68125
1763129417417,-0.5916254,6.7322063,6.9858456,0.012370012,0.07803798,-0.032833982,0.37432137,-0.028247003,-0.13612409,-4.78125,-3.6937501,-35.006252
1763129417421,-0.5916254,6.7322063,6.9858456,0.012370012,0.07803798,-0.032833982,0.37470737,-0.0275402,-0.13616256,-4.78125,-3.6937501,-35.006252
1763129417422,-0.5916254,6.7322063,6.9858456,0.031917684,0.06750056,-0.006872229,0.37470737,-0.0275402,-0.13616256,-4.78125,-3.6937501,-35.006252
1763129417423,-0.5706882,6.727421,6.851249,0.031917684,0.06750056,-0.006872229,0.37470737,-0.0275402,-0.13616256,-4.78125,-3.6937501,-35.006252
1763129417438,-0.5706882,6.727421,6.851249,0.031917684,0.06750056,-0.006872229,0.37470737,-0.0275402,-0.13616256,-6.05625,-3.6750002,-35.381252
1763129417441,-0.5706882,6.727421,6.851249,0.031917684,0.06750056,-0.006872229,0.3751813,-0.027139114,-0.13597487,-6.05625,-3.6750002,-35.381252
1763129417442,-0.5706882,6.727421,6.851249,0.031459536,0.043982264,0.011606431,0.3751813,-0.027139114,-0.13597487,-6.05625,-3.6750002,-35.381252
1763129417443,-0.47018966,6.786045,6.797411,0.031459536,0.043982264,0.011606431,0.3751813,-0.027139114,-0.13597487,-6.05625,-3.6750002,-35.381252
1763129417459,-0.47018966,6.786045,6.797411,0.031459536,0.043982264,0.011606431,0.3751813,-0.027139114,-0.13597487,-4.5375004,-2.025,-35.98125
1763129417463,-0.47018966,6.786045,6.797411,0.031459536,0.043982264,0.011606431,0.3756306,-0.027019545,-0.1356378,-4.5375004,-2.025,-35.98125
1763129417464,-0.49172506,6.818348,6.81775,0.031459536,0.043982264,0.011606431,0.3756306,-0.027019545,-0.1356378,-4.5375004,-2.025,-35.98125
1763129417465,-0.49172506,6.818348,6.81775,0.021685699,0.022754714,0.008704823,0.3756306,-0.027019545,-0.1356378,-4.5375004,-2.025,-35.98125
1763129417479,-0.49172506,6.818348,6.81775,0.021685699,0.022754714,0.008704823,0.3756306,-0.027019545,-0.1356378,-4.1062503,-2.4,-34.8375
1763129417483,-0.49172506,6.818348,6.81775,0.021685699,0.022754714,0.008704823,0.3758508,-0.026847048,-0.13556024,-4.1062503,-2.4,-34.8375
1763129417484,-0.49172506,6.818348,6.81775,-0.0025961753,0.012217295,-0.013439025,0.3758508,-0.026847048,-0.13556024,-4.1062503,-2.4,-34.8375
1763129417485,-0.51565325,6.814759,6.9134626,-0.0025961753,0.012217295,-0.013439025,0.3758508,-0.026847048,-0.13556024,-4.1062503,-2.4,-34.8375
1763129417497,-0.51565325,6.814759,6.9134626,-0.0025961753,0.012217295,-0.013439025,0.3758508,-0.026847048,-0.13556024,-5.34375,-4.14375,-34.59375
1763129417504,-0.51565325,6.814759,6.9134626,-0.0025961753,0.012217295,-0.013439025,0.37583995,-0.026402127,-0.13547541,-5.34375,-4.14375,-34.59375
1763129417505,-0.5371887,6.739983,7.0175505,-0.0025961753,0.012217295,-0.013439025,0.37583995,-0.026402127,-0.13547541,-5.34375,-4.14375,-34.59375
1763129417507,-0.5371887,6.739983,7.0175505,-0.018936807,0.03894263,-0.012064579,0.37583995,-0.026402127,-0.13547541,-5.34375,-4.14375,-34.59375
1763129417520,-0.5371887,6.739983,7.0175505,-0.018936807,0.03894263,-0.012064579,0.37583995,-0.026402127,-0.13547541,-3.7125,-2.4750001,-34.10625
1763129417525,-0.5371887,6.739983,7.0175505,-0.008246674,0.0377209,-0.004734202,0.37583995,-0.026402127,-0.13547541,-3.7125,-2.4750001,-34.10625
1763129417526,-0.56829536,6.765706,7.04447,-0.008246674,0.0377209,-0.004734202,0.37583995,-0.026402127,-0.13547541,-3.7125,-2.4750001,-34.10625
1763129417538,-0.56829536,6.765706,7.04447,-0.008246674,0.0377209,-0.004734202,0.3757288,-0.0259961,-0.13541962,-3.7125,-2.4750001,-34.10625
1763129417539,-0.56829536,6.765706,7.04447,-0.008246674,0.0377209,-0.004734202,0.3757288,-0.0259961,-0.13541962,-4.1625004,-2.0812502,-33.43125
1763129417546,-0.56829536,6.765706,7.04447,0.024740024,0.039095346,0.0070249448,0.3757288,-0.0259961,-0.13541962,-4.1625004,-2.0812502,-33.43125
1763129417547,-0.4869394,6.7986073,7.038488,0.024740024,0.039095346,0.0070249448,0.3757288,-0.0259961,-0.13541962,-4.1625004,-2.0812502,-33.43125
1763129417557,-0.4869394,6.7986073,7.038488,0.024740024,0.039095346,0.0070249448,0.37593096,-0.02565618,-0.13531627,-4.1625004,-2.0812502,-33.43125
1763129417558,-0.4869394,6.7986073,7.038488,0.024740024,0.039095346,0.0070249448,0.37593096,-0.02565618,-0.13531627,-4.03125,-2.86875,-33.9375
1763129417567,-0.4869394,6.7986073,7.038488,0.06856957,0.021227552,-0.002290743,0.37593096,-0.02565618,-0.13531627,-4.03125,-2.86875,-33.9375
1763129417568,-0.44147578,6.8374906,7.0863442,0.06856957,0.021227552,-0.002290743,0.37593096,-0.02565618,-0.13531627,-4.03125,-2.86875,-33.9375
1763129417578,-0.44147578,6.8374906,7.0863442,0.06856957,0.021227552,-0.002290743,0.3765429,-0.025576636,-0.1351176,-4.03125,-2.86875,-33.9375
1763129417578,-0.44147578,6.8374906,7.0863442,0.06856957,0.021227552,-0.002290743,0.3765429,-0.025576636,-0.1351176,-4.7250004,-4.14375,-34.256252
1763129417588,-0.44147578,6.8374906,7.0863442,0.1432478,0.026419902,-0.015729768,0.3765429,-0.025576636,-0.1351176,-4.7250004,-4.14375,-34.256252
1763129417589,-0.4869394,6.79442,7.09113,0.1432478,0.026419902,-0.015729768,0.3765429,-0.025576636,-0.1351176,-4.7250004,-4.14375,-34.256252
1763129417598,-0.4869394,6.79442,7.09113,0.1432478,0.026419902,-0.015729768,0.37782338,-0.025542928,-0.13489228,-4.7250004,-4.14375,-34.256252
1763129417599,-0.4869394,6.79442,7.09113,0.1432478,0.026419902,-0.015729768,0.37782338,-0.025542928,-0.13489228,-7.9125004,-5.7000003,-34.331253
1763129417610,-0.4869394,6.79442,7.09113,0.21288638,0.046425723,-0.00641408,0.37782338,-0.025542928,-0.13489228,-7.9125004,-5.7000003,-34.331253
1763129417611,-0.654437,6.6981087,7.024131,0.21288638,0.046425723,-0.00641408,0.37782338,-0.025542928,-0.13489228,-7.9125004,-5.7000003,-34.331253
1763129417619,-0.654437,6.6981087,7.024131,0.21288638,0.046425723,-0.00641408,0.37968403,-0.025417972,-0.1346353,-7.9125004,-5.7000003,-34.331253
1763129417620,-0.654437,6.6981087,7.024131,0.21288638,0.046425723,-0.00641408,0.37968403,-0.025417972,-0.1346353,-5.0625,-3.5812502,-34.2
1763129417630,-0.654437,6.6981087,7.024131,0.24587308,0.051159926,0.048258316,0.37968403,-0.025417972,-0.1346353,-5.0625,-3.5812502,-34.2
1763129417631,-0.59700924,6.8243303,6.762117,0.24587308,0.051159926,0.048258316,0.37968403,-0.025417972,-0.1346353,-5.0625,-3.5812502,-34.2
1763129417637,-0.59700924,6.8243303,6.762117,0.24587308,0.051159926,0.048258316,0.38176885,-0.02538672,-0.13433436,-5.0625,-3.5812502,-34.2
1763129417638,-0.59700924,6.8243303,6.762117,0.24587308,0.051159926,0.048258316,0.38176885,-0.02538672,-0.13433436,-4.0125003,-2.86875,-34.987503
1763129417652,-0.59700924,6.8243303,6.762117,0.1640172,0.032986697,0.027794348,0.38176885,-0.02538672,-0.13433436,-4.0125003,-2.86875,-34.987503
1763129417653,-0.38584265,7.0815587,6.629315,0.1640172,0.032986697,0.027794348,0.38176885,-0.02538672,-0.13433436,-4.0125003,-2.86875,-34.987503
1763129417659,-0.38584265,7.0815587,6.629315,0.1640172,0.032986697,0.027794348,0.38343188,-0.025377925,-0.13403822,-4.0125003,-2.86875,-34.987503
1763129417660,-0.38584265,7.0815587,6.629315,0.1640172,0.032986697,0.027794348,0.38343188,-0.025377925,-0.13403822,-4.78125,-3.6937501,-34.40625
1763129417672,-0.38584265,7.0815587,6.629315,0.11713332,0.03619374,0.013897174,0.38343188,-0.025377925,-0.13403822,-4.78125,-3.6937501,-34.40625
1763129417673,-0.5491528,6.793822,6.59103,0.11713332,0.03619374,0.013897174,0.38343188,-0.025377925,-0.13403822,-4.78125,-3.6937501,-34.40625
1763129417678,-0.5491528,6.793822,6.59103,0.11713332,0.03619374,0.013897174,0.38501838,-0.025385626,-0.1331609,-4.78125,-3.6937501,-34.40625
1763129417679,-0.5491528,6.793822,6.59103,0.11713332,0.03619374,0.013897174,0.38501838,-0.025385626,-0.1331609,-3.73125,-2.325,-34.74375
1763129417693,-0.5491528,6.793822,6.59103,0.21487169,-0.041538805,-0.004734202,0.38501838,-0.025385626,-0.1331609,-3.73125,-2.325,-34.74375
1763129417694,-1.14018,6.6628146,5.352146,0.21487169,-0.041538805,-0.004734202,0.38501838,-0.025385626,-0.1331609,-3.73125,-2.325,-34.74375
1763129417699,-1.14018,6.6628146,5.352146,0.21487169,-0.041538805,-0.004734202,0.38710305,-0.026053485,-0.13335505,-3.73125,-2.325,-34.74375
1763129417699,-1.14018,6.6628146,5.352146,0.21487169,-0.041538805,-0.004734202,0.38710305,-0.026053485,-0.13335505,-4.65,-4.4625,-34.7625
1763129417714,-1.14018,6.6628146,5.352146,0.16340633,-0.31535894,0.07880156,0.38710305,-0.026053485,-0.13335505,-4.65,-4.4625,-34.7625
1763129417715,-0.90807617,6.5982084,5.9324055,0.16340633,-0.31535894,0.07880156,0.38710305,-0.026053485,-0.13335505,-4.65,-4.4625,-34.7625
1763129417718,-0.90807617,6.5982084,5.9324055,0.16340633,-0.31535894,0.07880156,0.38710305,-0.026053485,-0.13335505,-6.0750003,-6.7125,-34.275
1763129417720,-0.90807617,6.5982084,5.9324055,0.16340633,-0.31535894,0.07880156,0.38959506,-0.029026654,-0.13506031,-6.0750003,-6.7125,-34.275
1763129417735,-0.90807617,6.5982084,5.9324055,-0.0772744,-0.29810202,0.12339468,0.38959506,-0.029026654,-0.13506031,-6.0750003,-6.7125,-34.275
1763129417736,-0.15972091,7.1048884,6.2009997,-0.0772744,-0.29810202,0.12339468,0.38959506,-0.029026654,-0.13506031,-6.0750003,-6.7125,-34.275
1763129417738,-0.15972091,7.1048884,6.2009997,-0.0772744,-0.29810202,0.12339468,0.38901293,-0.03185648,-0.1361159,-6.0750003,-6.7125,-34.275
1763129417739,-0.15972091,7.1048884,6.2009997,-0.0772744,-0.29810202,0.12339468,0.38901293,-0.03185648,-0.1361159,-5.55,-5.15625,-35.30625
1763129417756,-0.15972091,7.1048884,6.2009997,-0.38698283,-0.10155627,0.015882485,0.38901293,-0.03185648,-0.1361159,-5.55,-5.15625,-35.30625
1763129417758,-0.15972091,7.1048884,6.2009997,-0.38698283,-0.10155627,0.015882485,0.3860333,-0.032572478,-0.13550414,-5.55,-5.15625,-35.30625
1763129417759,-0.15972091,7.1048884,6.2009997,-0.38698283,-0.10155627,0.015882485,0.3860333,-0.032572478,-0.13550414,-3.54375,-2.1000001,-32.79375
1763129417759,-0.12622139,7.3776703,7.359126,-0.38698283,-0.10155627,0.015882485,0.3860333,-0.032572478,-0.13550414,-3.54375,-2.1000001,-32.79375
1763129417778,-0.12622139,7.3776703,7.359126,-0.33811367,0.021227552,-0.032070402,0.3860333,-0.032572478,-0.13550414,-3.54375,-2.1000001,-32.79375
1763129417779,-0.12622139,7.3776703,7.359126,-0.33811367,0.021227552,-0.032070402,0.38277182,-0.032051824,-0.13498816,-3.54375,-2.1000001,-32.79375
1763129417780,-0.12622139,7.3776703,7.359126,-0.33811367,0.021227552,-0.032070402,0.38277182,-0.032051824,-0.13498816,-4.5750003,-2.6625001,-34.29375
1763129417781,-0.44027936,6.4881387,7.7994056,-0.33811367,0.021227552,-0.032070402,0.38277182,-0.032051824,-0.13498816,-4.5750003,-2.6625001,-34.29375
1763129417801,-0.67118675,7.0492554,7.2418776,-0.33811367,0.021227552,-0.032070402,0.38277182,-0.032051824,-0.13498816,-4.5750003,-2.6625001,-34.29375
1763129417801,-0.67118675,7.0492554,7.2418776,-0.045509428,-0.012675445,-0.03161225,0.38277182,-0.032051824,-0.13498816,-4.5750003,-2.6625001,-34.29375
1763129417802,-0.67118675,7.0492554,7.2418776,-0.045509428,-0.012675445,-0.03161225,0.3808302,-0.03199495,-0.13589552,-4.5750003,-2.6625001,-34.29375
1763129417803,-0.67118675,7.0492554,7.2418776,-0.045509428,-0.012675445,-0.03161225,0.3808302,-0.03199495,-0.13589552,-5.1937504,-3.4687502,-35.193752
