timestamp,accX,accY,accZ,gyroX,gyroY,gyroZ,rotX,rotY,rotZ,magX,magY,magZ
1763129309657,-2.2121646,6.0430737,4.991428,-0.47021317,-1.1546872,0.160352,0.28799838,-0.1583856,-0.76721203,10.59375,-18.618752,-30.243752
1763129309658,-2.2121646,6.0430737,4.991428,-0.47021317,-1.1546872,0.160352,0.28799838,-0.1583856,-0.76721203,5.86875,-21.7875,-28.66875
1763129309669,-2.2121646,6.0430737,4.991428,-0.8938479,-1.094517,-0.11209369,0.28799838,-0.1583856,-0.76721203,5.86875,-21.7875,-28.66875
1763129309670,-1.4243277,7.5786676,8.430512,-0.8938479,-1.094517,-0.11209369,0.28799838,-0.1583856,-0.76721203,5.86875,-21.7875,-28.66875
1763129309679,-1.4243277,7.5786676,8.430512,-0.8938479,-1.094517,-0.11209369,0.2748592,-0.15701585,-0.77137476,5.86875,-21.7875,-28.66875
1763129309680,-1.4243277,7.5786676,8.430512,-0.8938479,-1.094517,-0.11209369,0.2748592,-0.15701585,-0.77137476,5.64375,-19.087502,-27.0375
1763129309689,-1.4243277,7.5786676,8.430512,-1.051451,-0.570395,-0.48395762,0.2748592,-0.15701585,-0.77137476,5.64375,-19.087502,-27.0375
1763129309690,-1.038485,6.29432,9.630513,-1.051451,-0.570395,-0.48395762,0.2748592,-0.15701585,-0.77137476,5.64375,-19.087502,-27.0375
1763129309698,-1.038485,6.29432,9.630513,-1.051451,-0.570395,-0.48395762,0.2651211,-0.15064442,-0.77667797,5.64375,-19.087502,-27.0375
1763129309699,-1.038485,6.29432,9.630513,-1.051451,-0.570395,-0.48395762,0.2651211,-0.15064442,-0.77667797,6.01875,-19.66875,-28.29375
1763129309712,-1.038485,6.29432,9.630513,-0.7177661,-0.4413498,-0.5235111,0.2651211,-0.15064442,-0.77667797,6.01875,-19.66875,-28.29375
1763129309713,-1.5517455,5.316852,10.038489,-0.7177661,-0.4413498,-0.5235111,0.2651211,-0.15064442,-0.77667797,6.01875,-19.66875,-28.29375
1763129309717,-1.5517455,5.316852,10.038489,-0.7177661,-0.4413498,-0.5235111,0.2578526,-0.14626682,-0.782085,6.01875,-19.66875,-28.29375
1763129309718,-1.5517455,5.316852,10.038489,-0.7177661,-0.4413498,-0.5235111,0.2578526,-0.14626682,-0.782085,4.70625,-20.2875,-27.45
1763129309732,-1.5517455,5.316852,10.038489,-0.33337945,-0.32772896,-0.46883872,0.2578526,-0.14626682,-0.782085,4.70625,-20.2875,-27.45
1763129309732,-2.5782664,5.5543394,9.833304,-0.33337945,-0.32772896,-0.46883872,0.2578526,-0.14626682,-0.782085,4.70625,-20.2875,-27.45
1763129309737,-2.5782664,5.5543394,9.833304,-0.33337945,-0.32772896,-0.46883872,0.2534923,-0.14442702,-0.78665555,4.70625,-20.2875,-27.45
1763129309738,-2.5782664,5.5543394,9.833304,-0.33337945,-0.32772896,-0.46883872,0.2534923,-0.14442702,-0.78665555,6.2812505,-18.806252,-29.19375
1763129309753,-2.5782664,5.5543394,9.833304,-0.16752967,-0.19211698,-0.40286532,0.2534923,-0.14442702,-0.78665555,6.2812505,-18.806252,-29.19375
1763129309754,-2.7296124,4.9992046,9.104092,-0.16752967,-0.19211698,-0.40286532,0.2534923,-0.14442702,-0.78665555,6.2812505,-18.806252,-29.19375
1763129309758,-2.7296124,4.9992046,9.104092,-0.16752967,-0.19211698,-0.40286532,0.25145036,-0.14308149,-0.78979385,6.2812505,-18.806252,-29.19375
1763129309759,-2.7296124,4.9992046,9.104092,-0.16752967,-0.19211698,-0.40286532,0.25145036,-0.14308149,-0.78979385,6.39375,-17.831251,-30.337502
1763129309774,-2.7296124,4.9992046,9.104092,-0.17043127,-0.089033544,-0.34101525,0.25145036,-0.14308149,-0.78979385,6.39375,-17.831251,-30.337502
1763129309775,-2.4394827,4.770092,8.505886,-0.17043127,-0.089033544,-0.34101525,0.25145036,-0.14308149,-0.78979385,6.39375,-17.831251,-30.337502
1763129309779,-2.4394827,4.770092,8.505886,-0.17043127,-0.089033544,-0.34101525,0.25021893,-0.14120798,-0.7922699,6.39375,-17.831251,-30.337502
1763129309779,-2.4394827,4.770092,8.505886,-0.17043127,-0.089033544,-0.34101525,0.25021893,-0.14120798,-0.7922699,6.39375,-17.831251,-30.337502
1763129309795,-2.4394827,4.770092,8.505886,-0.16676609,-0.12064579,-0.34193155,0.25021893,-0.14120798,-0.7922699,6.39375,-17.831251,-30.337502
1763129309796,-2.4119651,4.92084,8.244471,-0.16676609,-0.12064579,-0.34193155,0.25021893,-0.14120798,-0.7922699,6.39375,-17.831251,-30.337502
1763129309798,-2.4119651,4.92084,8.244471,-0.16676609,-0.12064579,-0.34193155,0.24873146,-0.13960452,-0.79483175,6.39375,-17.831251,-30.337502
1763129309799,-2.4119651,4.92084,8.244471,-0.16676609,-0.12064579,-0.34193155,0.24873146,-0.13960452,-0.79483175,7.14375,-16.35,-28.368752
1763129309816,-2.4119651,4.92084,8.244471,-0.08384119,-0.20494513,-0.3911062,0.24873146,-0.13960452,-0.79483175,7.14375,-16.35,-28.368752
1763129309817,-2.5495524,4.9196434,8.3013,-0.08384119,-0.20494513,-0.3911062,0.24873146,-0.13960452,-0.79483175,7.14375,-16.35,-28.368752
1763129309818,-2.5495524,4.9196434,8.3013,-0.08384119,-0.20494513,-0.3911062,0.24717788,-0.13898875,-0.7975065,7.14375,-16.35,-28.368752
1763129309819,-2.5495524,4.9196434,8.3013,-0.08384119,-0.20494513,-0.3911062,0.24717788,-0.13898875,-0.7975065,5.7375,-17.962502,-28.368752
1763129309838,-2.5495524,4.9196434,8.3013,-0.08384119,-0.20494513,-0.3911062,0.2460191,-0.13825923,-0.80038273,5.7375,-17.962502,-28.368752
1763129309843,-2.5495524,4.9196434,8.3013,-0.08384119,-0.20494513,-0.3911062,0.2460191,-0.13825923,-0.80038273,6.5062504,-16.35,-28.725
1763129309844,-2.5495524,4.9196434,8.3013,-0.062460925,-0.18539746,-0.45020735,0.2460191,-0.13825923,-0.80038273,6.5062504,-16.35,-28.725
1763129309844,-2.6590242,4.7282176,8.129017,-0.062460925,-0.18539746,-0.45020735,0.2460191,-0.13825923,-0.80038273,6.5062504,-16.35,-28.725
1763129309859,-2.6590242,4.7282176,8.129017,-0.062460925,-0.18539746,-0.45020735,0.24545042,-0.13600968,-0.80314636,6.5062504,-16.35,-28.725
1763129309859,-2.6590242,4.7282176,8.129017,-0.15210533,-0.060781047,-0.4677697,0.24545042,-0.13600968,-0.80314636,6.5062504,-16.35,-28.725
1763129309860,-2.6590242,4.7282176,8.129017,-0.15210533,-0.060781047,-0.4677697,0.24545042,-0.13600968,-0.80314636,3.8437502,-18.73125,-29.775002
1763129309861,-2.5316064,4.4745784,7.960323,-0.15210533,-0.060781047,-0.4677697,0.24545042,-0.13600968,-0.80314636,3.8437502,-18.73125,-29.775002
1763129309879,-2.5316064,4.4745784,7.960323,-0.15210533,-0.060781047,-0.4677697,0.24545042,-0.13600968,-0.80314636,2.9625,-19.06875,-27.225
1763129309880,-2.4185455,4.2460637,7.679166,-0.15210533,-0.060781047,-0.4677697,0.24545042,-0.13600968,-0.80314636,2.9625,-19.06875,-27.225
1763129309881,-2.4185455,4.2460637,7.679166,-0.18157956,-0.058032155,-0.4196641,0.24545042,-0.13600968,-0.80314636,2.9625,-19.06875,-27.225
1763129309882,-2.4185455,4.2460637,7.679166,-0.18157956,-0.058032155,-0.4196641,0.2446085,-0.13366042,-0.8057682,2.9625,-19.06875,-27.225
1763129309898,-2.4185455,4.2460637,7.679166,-0.18157956,-0.058032155,-0.4196641,0.2446085,-0.13366042,-0.8057682,4.6687503,-18.225,-30.431252
1763129309900,-2.4185455,4.2460637,7.679166,-0.13301581,-0.24465135,-0.3112356,0.2446085,-0.13366042,-0.8057682,4.6687503,-18.225,-30.431252
1763129309901,-2.4185455,4.2460637,7.679166,-0.13301581,-0.24465135,-0.3112356,0.24227238,-0.13305286,-0.8082644,4.6687503,-18.225,-30.431252
1763129309901,-2.53041,4.197011,7.376474,-0.13301581,-0.24465135,-0.3112356,0.24227238,-0.13305286,-0.8082644,4.6687503,-18.225,-30.431252
1763129309917,-2.53041,4.197011,7.376474,-0.13301581,-0.24465135,-0.3112356,0.24227238,-0.13305286,-0.8082644,2.625,-17.868752,-25.987501
1763129309920,-2.53041,4.197011,7.376474,-0.14126249,-0.481056,-0.23640467,0.24227238,-0.13305286,-0.8082644,2.625,-17.868752,-25.987501
1763129309920,-2.3336003,4.554738,7.3950186,-0.14126249,-0.481056,-0.23640467,0.24227238,-0.13305286,-0.8082644,2.625,-17.868752,-25.987501
1763129309921,-2.3336003,4.554738,7.3950186,-0.14126249,-0.481056,-0.23640467,0.23790301,-0.13374232,-0.8107109,2.625,-17.868752,-25.987501
1763129309939,-2.3336003,4.554738,7.3950186,-0.14126249,-0.481056,-0.23640467,0.23790301,-0.13374232,-0.8107109,1.6125001,-21.0,-27.112501
1763129309942,-2.3336003,4.554738,7.3950186,-0.14126249,-0.481056,-0.23640467,0.23256811,-0.13418677,-0.81376046,1.6125001,-21.0,-27.112501
1763129309944,-2.3336003,4.554738,7.3950186,-0.21074834,-0.56550807,-0.31169376,0.23256811,-0.13418677,-0.81376046,1.6125001,-21.0,-27.112501
1763129309945,-1.7503498,4.961518,7.8741813,-0.21074834,-0.56550807,-0.31169376,0.23256811,-0.13418677,-0.81376046,1.6125001,-21.0,-27.112501
1763129309958,-1.7503498,4.961518,7.8741813,-0.21074834,-0.56550807,-0.31169376,0.23256811,-0.13418677,-0.81376046,2.625,-19.462502,-25.85625
1763129309962,-1.7503498,4.961518,7.8741813,-0.29550585,-0.51648617,-0.46440995,0.23256811,-0.13418677,-0.81376046,2.625,-19.462502,-25.85625
1763129309963,-1.7503498,4.961518,7.8741813,-0.29550585,-0.51648617,-0.46440995,0.227308,-0.13338372,-0.8175185,2.625,-19.462502,-25.85625
1763129309964,-1.6953149,4.820341,7.932805,-0.29550585,-0.51648617,-0.46440995,0.227308,-0.13338372,-0.8175185,2.625,-19.462502,-25.85625
1763129309978,-1.6953149,4.820341,7.932805,-0.29550585,-0.51648617,-0.46440995,0.227308,-0.13338372,-0.8175185,3.3000002,-17.737501,-30.206251
1763129309984,-1.6953149,4.820341,7.932805,-0.30894485,-0.6359102,-0.48884454,0.227308,-0.13338372,-0.8175185,3.3000002,-17.737501,-30.206251
1763129309985,-1.6953149,4.820341,7.932805,-0.30894485,-0.6359102,-0.48884454,0.22092143,-0.13309604,-0.8218135,3.3000002,-17.737501,-30.206251
1763129309986,-2.111666,4.5302114,7.937591,-0.30894485,-0.6359102,-0.48884454,0.22092143,-0.13309604,-0.8218135,3.3000002,-17.737501,-30.206251
1763129309997,-2.111666,4.5302114,7.937591,-0.30894485,-0.6359102,-0.48884454,0.22092143,-0.13309604,-0.8218135,2.8875,-17.00625,-27.187502
1763129310004,-2.111666,4.5302114,7.937591,-0.24877468,-0.813061,-0.44409868,0.22092143,-0.13309604,-0.8218135,2.8875,-17.00625,-27.187502
1763129310005,-2.2157538,4.3561335,8.3174515,-0.24877468,-0.813061,-0.44409868,0.22092143,-0.13309604,-0.8218135,2.8875,-17.00625,-27.187502
1763129310006,-2.2157538,4.3561335,8.3174515,-0.24877468,-0.813061,-0.44409868,0.21333398,-0.13424669,-0.826123,2.8875,-17.00625,-27.187502
1763129310018,-2.2157538,4.3561335,8.3174515,-0.24877468,-0.813061,-0.44409868,0.21333398,-0.13424669,-0.826123,1.0875001,-17.456251,-29.868752
1763129310026,-2.2157538,4.3561335,8.3174515,-0.13698642,-0.893237,-0.46074477,0.21333398,-0.13424669,-0.826123,1.0875001,-17.456251,-29.868752
1763129310027,-1.7431713,4.4949174,8.71466,-0.13698642,-0.893237,-0.46074477,0.21333398,-0.13424669,-0.826123,1.0875001,-17.456251,-29.868752
1763129310038,-1.7431713,4.4949174,8.71466,-0.13698642,-0.893237,-0.46074477,0.20562224,-0.13670257,-0.8305533,1.0875001,-17.456251,-29.868752
1763129310039,-1.7431713,4.4949174,8.71466,-0.13698642,-0.893237,-0.46074477,0.20562224,-0.13670257,-0.8305533,0.99375004,-18.581251,-29.1375
1763129310047,-1.7431713,4.4949174,8.71466,0.06169734,-0.9364557,-0.6101012,0.20562224,-0.13670257,-0.8305533,0.99375004,-18.581251,-29.1375
1763129310048,-1.4913267,4.738985,8.525029,0.06169734,-0.9364557,-0.6101012,0.20562224,-0.13670257,-0.8305533,0.99375004,-18.581251,-29.1375
1763129310058,-1.4913267,4.738985,8.525029,0.06169734,-0.9364557,-0.6101012,0.19864559,-0.14087507,-0.8355624,0.99375004,-18.581251,-29.1375
1763129310058,-1.4913267,4.738985,8.525029,0.06169734,-0.9364557,-0.6101012,0.19864559,-0.14087507,-0.8355624,-0.93750006,-18.54375,-28.518751
1763129310068,-1.4913267,4.738985,8.525029,0.18982624,-1.1299471,-0.70967215,0.19864559,-0.14087507,-0.8355624,-0.93750006,-18.54375,-28.518751
1763129310068,-1.7946169,4.471587,8.142178,0.18982624,-1.1299471,-0.70967215,0.19864559,-0.14087507,-0.8355624,-0.93750006,-18.54375,-28.518751
1763129310079,-1.7946169,4.471587,8.142178,0.18982624,-1.1299471,-0.70967215,0.19079901,-0.14697614,-0.8410464,-0.93750006,-18.54375,-28.518751
1763129310080,-1.7946169,4.471587,8.142178,0.18982624,-1.1299471,-0.70967215,0.19079901,-0.14697614,-0.8410464,-1.9687501,-19.275002,-28.48125
1763129310088,-1.7946169,4.471587,8.142178,-0.08093958,-1.1817179,-0.606436,0.19079901,-0.14697614,-0.8410464,-1.9687501,-19.275002,-28.48125
1763129310089,-2.0470598,3.798606,8.603394,-0.08093958,-1.1817179,-0.606436,0.19079901,-0.14697614,-0.8410464,-1.9687501,-19.275002,-28.48125
1763129310098,-2.0470598,3.798606,8.603394,-0.08093958,-1.1817179,-0.606436,0.18107097,-0.15101591,-0.8462776,-1.9687501,-19.275002,-28.48125
1763129310099,-2.0470598,3.798606,8.603394,-0.08093958,-1.1817179,-0.606436,0.18107097,-0.15101591,-0.8462776,-2.6437502,-19.087502,-27.206251
1763129310110,-2.0470598,3.798606,8.603394,-0.45112363,-0.8384119,-0.44822204,0.18107097,-0.15101591,-0.8462776,-2.6437502,-19.087502,-27.206251
1763129310111,-1.774278,3.7280176,9.062816,-0.45112363,-0.8384119,-0.44822204,0.18107097,-0.15101591,-0.8462776,-2.6437502,-19.087502,-27.206251
1763129310118,-1.774278,3.7280176,9.062816,-0.45112363,-0.8384119,-0.44822204,0.17218745,-0.15020713,-0.85075045,-2.6437502,-19.087502,-27.206251
1763129310119,-1.774278,3.7280176,9.062816,-0.45112363,-0.8384119,-0.44822204,0.17218745,-0.15020713,-0.85075045,-2.1750002,-18.825,-27.750002
1763129310131,-1.774278,3.7280176,9.062816,-0.5997165,-0.67714363,-0.43508843,0.17218745,-0.15020713,-0.85075045,-2.1750002,-18.825,-27.750002
1763129310132,-1.692922,4.0163527,9.1872425,-0.5997165,-0.67714363,-0.43508843,0.17218745,-0.15020713,-0.85075045,-2.1750002,-18.825,-27.750002
1763129310138,-1.692922,4.0163527,9.1872425,-0.5997165,-0.67714363,-0.43508843,0.16386825,-0.14731857,-0.8550917,-2.1750002,-18.825,-27.750002
1763129310139,-1.692922,4.0163527,9.1872425,-0.5997165,-0.67714363,-0.43508843,0.16386825,-0.14731857,-0.8550917,-1.5562501,-16.275002,-28.5375
1763129310152,-1.692922,4.0163527,9.1872425,-0.59528774,-0.6488911,-0.4677697,0.16386825,-0.14731857,-0.8550917,-1.5562501,-16.275002,-28.5375
1763129310153,-1.8053846,3.9415772,9.277572,-0.59528774,-0.6488911,-0.4677697,0.16386825,-0.14731857,-0.8550917,-1.5562501,-16.275002,-28.5375
1763129310157,-1.8053846,3.9415772,9.277572,-0.59528774,-0.6488911,-0.4677697,0.15593308,-0.14429732,-0.8592995,-1.5562501,-16.275002,-28.5375
1763129310159,-1.8053846,3.9415772,9.277572,-0.59528774,-0.6488911,-0.4677697,0.15593308,-0.14429732,-0.8592995,-4.51875,-19.368752,-27.093752
1763129310173,-1.8053846,3.9415772,9.277572,-0.5516109,-0.6513346,-0.45341438,0.15593308,-0.14429732,-0.8592995,-4.51875,-19.368752,-27.093752
1763129310174,-1.948954,3.5970106,9.543773,-0.5516109,-0.6513346,-0.45341438,0.15593308,-0.14429732,-0.8592995,-4.51875,-19.368752,-27.093752
1763129310180,-1.948954,3.5970106,9.543773,-0.5516109,-0.6513346,-0.45341438,0.1482125,-0.14165866,-0.8632313,-4.51875,-19.368752,-27.093752
1763129310181,-1.948954,3.5970106,9.543773,-0.5516109,-0.6513346,-0.45341438,0.1482125,-0.14165866,-0.8632313,-5.1937504,-20.8125,-26.75625
1763129310194,-1.948954,3.5970106,9.543773,-0.4723512,-0.59360784,-0.33979353,0.1482125,-0.14165866,-0.8632313,-5.1937504,-20.8125,-26.75625
1763129310195,-1.7150556,3.4695928,9.759726,-0.4723512,-0.59360784,-0.33979353,0.1482125,-0.14165866,-0.8632313,-5.1937504,-20.8125,-26.75625
1763129310198,-1.7150556,3.4695928,9.759726,-0.4723512,-0.59360784,-0.33979353,0.1482125,-0.14165866,-0.8632313,-4.96875,-18.1875,-27.525002
1763129310200,-1.7150556,3.4695928,9.759726,-0.4723512,-0.59360784,-0.33979353,0.14120826,-0.13954888,-0.8664029,-4.96875,-18.1875,-27.525002
1763129310214,-1.7150556,3.4695928,9.759726,-0.46700612,-0.47021317,-0.22052218,0.14120826,-0.13954888,-0.8664029,-4.96875,-18.1875,-27.525002
1763129310215,-1.6319051,3.0041888,9.178867,-0.46700612,-0.47021317,-0.22052218,0.14120826,-0.13954888,-0.8664029,-4.96875,-18.1875,-27.525002
1763129310218,-1.6319051,3.0041888,9.178867,-0.46700612,-0.47021317,-0.22052218,0.13509934,-0.13708605,-0.8688234,-4.96875,-18.1875,-27.525002
1763129310219,-1.6319051,3.0041888,9.178867,-0.46700612,-0.47021317,-0.22052218,0.13509934,-0.13708605,-0.8688234,-4.5750003,-17.456251,-27.000002
1763129310236,-1.6319051,3.0041888,9.178867,-0.5887209,-0.6058251,-0.08659008,0.13509934,-0.13708605,-0.8688234,-4.5750003,-17.456251,-27.000002
1763129310237,-1.1425728,2.964109,8.405388,-0.5887209,-0.6058251,-0.08659008,0.13509934,-0.13708605,-0.8688234,-4.5750003,-17.456251,-27.000002
1763129310238,-1.1425728,2.964109,8.405388,-0.5887209,-0.6058251,-0.08659008,0.12697835,-0.13431178,-0.870924,-4.5750003,-17.456251,-27.000002
1763129310239,-1.1425728,2.964109,8.405388,-0.5887209,-0.6058251,-0.08659008,0.12697835,-0.13431178,-0.870924,-5.5687504,-16.875,-27.45
1763129310258,-1.1425728,2.964109,8.405388,-0.716239,-0.8822415,-0.07177661,0.12697835,-0.13431178,-0.870924,-5.5687504,-16.875,-27.45
1763129310259,-1.1425728,2.964109,8.405388,-0.716239,-0.8822415,-0.07177661,0.115692146,-0.13179773,-0.8733167,-5.5687504,-16.875,-27.45
1763129310260,-1.1425728,2.964109,8.405388,-0.716239,-0.8822415,-0.07177661,0.115692146,-0.13179773,-0.8733167,-6.5437503,-18.056252,-25.7625
1763129310262,-0.77347994,3.423531,8.602796,-0.716239,-0.8822415,-0.07177661,0.115692146,-0.13179773,-0.8733167,-6.5437503,-18.056252,-25.7625
1763129310278,-0.77347994,3.423531,8.602796,-0.7704532,-0.9364557,-0.09086613,0.115692146,-0.13179773,-0.8733167,-6.5437503,-18.056252,-25.7625
1763129310279,-0.77347994,3.423531,8.602796,-0.7704532,-0.9364557,-0.09086613,0.115692146,-0.13179773,-0.8733167,-7.8,-16.59375,-25.9125
1763129310281,-0.77347994,3.423531,8.602796,-0.7704532,-0.9364557,-0.09086613,0.10370282,-0.12912348,-0.8756657,-7.8,-16.59375,-25.9125
1763129310282,-0.6735796,3.4803605,8.882157,-0.7704532,-0.9364557,-0.09086613,0.10370282,-0.12912348,-0.8756657,-7.8,-16.59375,-25.9125
1763129310299,-0.6735796,3.4803605,8.882157,-0.7704532,-0.9364557,-0.09086613,0.0909535,-0.12577713,-0.8776695,-7.8,-16.59375,-25.9125
1763129310300,-0.6735796,3.4803605,8.882157,-0.8651372,-0.9640973,-0.029474225,0.0909535,-0.12577713,-0.8776695,-7.8,-16.59375,-25.9125
1763129310301,-0.6735796,3.4803605,8.882157,-0.8651372,-0.9640973,-0.029474225,0.0909535,-0.12577713,-0.8776695,-7.93125,-17.41875,-25.425001
1763129310303,-0.65084773,3.1136606,8.87139,-0.8651372,-0.9640973,-0.029474225,0.0909535,-0.12577713,-0.8776695,-7.93125,-17.41875,-25.425001
1763129310317,-0.65084773,3.1136606,8.87139,-0.8651372,-0.9640973,-0.029474225,0.0909535,-0.12577713,-0.8776695,-8.15625,-16.03125,-26.325
1763129310319,-0.65084773,3.1136606,8.87139,-0.8651372,-0.9640973,-0.029474225,0.07679706,-0.12154551,-0.8792824,-8.15625,-16.03125,-26.325
1763129310320,-0.65084773,3.1136606,8.87139,-0.99998564,-1.0326669,0.06994402,0.07679706,-0.12154551,-0.8792824,-8.15625,-16.03125,-26.325
1763129310321,-0.27098715,2.9210382,8.722437,-0.99998564,-1.0326669,0.06994402,0.07679706,-0.12154551,-0.8792824,-8.15625,-16.03125,-26.325
1763129310338,-0.27098715,2.9210382,8.722437,-0.99998564,-1.0326669,0.06994402,0.07679706,-0.12154551,-0.8792824,-11.043751,-17.962502,-24.843752
1763129310342,0.3792624,3.5365918,8.971291,-0.99998564,-1.0326669,0.06994402,0.07679706,-0.12154551,-0.8792824,-11.043751,-17.962502,-24.843752
1763129310343,0.3792624,3.5365918,8.971291,-0.99998564,-1.0326669,0.06994402,0.06110856,-0.11852277,-0.8810443,-11.043751,-17.962502,-24.843752
1763129310345,0.3792624,3.5365918,8.971291,-0.9628756,-1.2186753,0.018631376,0.06110856,-0.11852277,-0.8810443,-11.043751,-17.962502,-24.843752
1763129310358,0.3792624,3.5365918,8.971291,-0.9628756,-1.2186753,0.018631376,0.06110856,-0.11852277,-0.8810443,-10.40625,-15.58125,-25.143751
1763129310361,0.3792624,3.5365918,8.971291,-0.6519454,-1.3680316,-0.23319763,0.06110856,-0.11852277,-0.8810443,-10.40625,-15.58125,-25.143751
1763129310362,0.3792624,3.5365918,8.971291,-0.6519454,-1.3680316,-0.23319763,0.045829885,-0.11909757,-0.88334614,-10.40625,-15.58125,-25.143751
1763129310363,0.66161543,3.2877383,9.834501,-0.6519454,-1.3680316,-0.23319763,0.045829885,-0.11909757,-0.88334614,-10.40625,-15.58125,-25.143751
1763129310379,0.66161543,3.2877383,9.834501,-0.6519454,-1.3680316,-0.23319763,0.045829885,-0.11909757,-0.88334614,-12.187501,-16.612501,-22.66875
1763129310384,0.83748794,2.7505496,10.295119,-0.6519454,-1.3680316,-0.23319763,0.045829885,-0.11909757,-0.88334614,-12.187501,-16.612501,-22.66875
1763129310385,0.83748794,2.7505496,10.295119,-0.24999641,-1.1754565,-0.34865108,0.045829885,-0.11909757,-0.88334614,-12.187501,-16.612501,-22.66875
1763129310386,0.83748794,2.7505496,10.295119,-0.24999641,-1.1754565,-0.34865108,0.03428232,-0.122345,-0.88557184,-12.187501,-16.612501,-22.66875
1763129310397,0.83748794,2.7505496,10.295119,-0.24999641,-1.1754565,-0.34865108,0.03428232,-0.122345,-0.88557184,-12.337501,-15.675,-23.1
1763129310404,0.83748794,2.7505496,10.295119,0.021838415,-0.9308052,-0.3857611,0.03428232,-0.122345,-0.88557184,-12.337501,-15.675,-23.1
1763129310405,0.83748794,2.7505496,10.295119,0.021838415,-0.9308052,-0.3857611,0.02620529,-0.12681004,-0.8876308,-12.337501,-15.675,-23.1
1763129310406,1.1820544,2.3437698,10.013365,0.021838415,-0.9308052,-0.3857611,0.02620529,-0.12681004,-0.8876308,-12.337501,-15.675,-23.1
1763129310417,1.1820544,2.3437698,10.013365,0.021838415,-0.9308052,-0.3857611,0.02620529,-0.12681004,-0.8876308,-13.8,-16.03125,-24.206251
1763129310425,1.1820544,2.3437698,10.013365,0.021838415,-0.9308052,-0.3857611,0.01999589,-0.13118897,-0.88971746,-13.8,-16.03125,-24.206251
1763129310426,1.1736795,2.1212373,9.894919,0.021838415,-0.9308052,-0.3857611,0.01999589,-0.13118897,-0.88971746,-13.8,-16.03125,-24.206251
1763129310428,1.1736795,2.1212373,9.894919,0.10522146,-0.75976306,-0.4082104,0.01999589,-0.13118897,-0.88971746,-13.8,-16.03125,-24.206251
1763129310438,1.1736795,2.1212373,9.894919,0.10522146,-0.75976306,-0.4082104,0.01999589,-0.13118897,-0.88971746,-13.218751,-15.731251,-23.962502
1763129310445,1.1736795,2.1212373,9.894919,0.04780017,-0.5195405,-0.35659233,0.01999589,-0.13118897,-0.88971746,-13.218751,-15.731251,-23.962502
1763129310446,0.9487542,1.6588243,10.460224,0.04780017,-0.5195405,-0.35659233,0.01999589,-0.13118897,-0.88971746,-13.218751,-15.731251,-23.962502
1763129310459,0.9487542,1.6588243,10.460224,0.04780017,-0.5195405,-0.35659233,0.015677253,-0.13387379,-0.8915834,-13.218751,-15.731251,-23.962502
1763129310460,0.9487542,1.6588243,10.460224,0.04780017,-0.5195405,-0.35659233,0.015677253,-0.13387379,-0.8915834,-14.250001,-16.462502,-23.925001
1763129310466,0.9487542,1.6588243,10.460224,-0.03924806,-0.11270455,-0.1904371,0.015677253,-0.13387379,-0.8915834,-14.250001,-16.462502,-23.925001
1763129310468,1.032503,1.5804594,10.305289,-0.03924806,-0.11270455,-0.1904371,0.015677253,-0.13387379,-0.8915834,-14.250001,-16.462502,-23.925001
1763129310479,1.032503,1.5804594,10.305289,-0.03924806,-0.11270455,-0.1904371,0.014504316,-0.1337598,-0.89285046,-14.250001,-16.462502,-23.925001
1763129310480,1.032503,1.5804594,10.305289,-0.03924806,-0.11270455,-0.1904371,0.014504316,-0.1337598,-0.89285046,-14.043751,-16.237501,-23.00625
1763129310487,1.032503,1.5804594,10.305289,0.05222894,0.08933897,-0.103236146,0.014504316,-0.1337598,-0.89285046,-14.043751,-16.237501,-23.00625
1763129310488,1.0229317,2.3132613,10.439287,0.05222894,0.08933897,-0.103236146,0.014504316,-0.1337598,-0.89285046,-14.043751,-16.237501,-23.00625
1763129310497,1.0229317,2.3132613,10.439287,0.05222894,0.08933897,-0.103236146,0.014504316,-0.1337598,-0.89285046,-13.5375,-17.081251,-22.03125
1763129310498,1.0229317,2.3132613,10.439287,0.05222894,0.08933897,-0.103236146,0.015467745,-0.13360798,-0.89359814,-13.5375,-17.081251,-22.03125
1763129310508,1.0229317,2.3132613,10.439287,0.24648394,0.2941314,-0.171653,0.015467745,-0.13360798,-0.89359814,-13.5375,-17.081251,-22.03125
1763129310510,0.95712906,2.5238297,9.905089,0.24648394,0.2941314,-0.171653,0.015467745,-0.13360798,-0.89359814,-13.5375,-17.081251,-22.03125
1763129310518,0.95712906,2.5238297,9.905089,0.24648394,0.2941314,-0.171653,0.01943251,-0.13448882,-0.89414805,-13.5375,-17.081251,-22.03125
1763129310519,0.95712906,2.5238297,9.905089,0.24648394,0.2941314,-0.171653,0.01943251,-0.13448882,-0.89414805,-13.368751,-18.0,-22.331251
1763129310530,0.95712906,2.5238297,9.905089,0.3781253,0.25641048,-0.18784092,0.01943251,-0.13448882,-0.89414805,-13.368751,-18.0,-22.331251
1763129310531,0.5138587,2.3150558,9.413364,0.3781253,0.25641048,-0.18784092,0.01943251,-0.13448882,-0.89414805,-13.368751,-18.0,-22.331251
1763129310538,0.5138587,2.3150558,9.413364,0.3781253,0.25641048,-0.18784092,0.01943251,-0.13448882,-0.89414805,-13.968751,-18.150002,-23.23125
1763129310539,0.5138587,2.3150558,9.413364,0.3781253,0.25641048,-0.18784092,0.023696193,-0.13683063,-0.8944969,-13.968751,-18.150002,-23.23125
1763129310550,0.5138587,2.3150558,9.413364,0.41523534,0.16584979,-0.09880738,0.023696193,-0.13683063,-0.8944969,-13.968751,-18.150002,-23.23125
1763129310552,0.28235307,2.239682,9.548559,0.41523534,0.16584979,-0.09880738,0.023696193,-0.13683063,-0.8944969,-13.968751,-18.150002,-23.23125
1763129310557,0.28235307,2.239682,9.548559,0.41523534,0.16584979,-0.09880738,0.027226394,-0.13986945,-0.8943657,-13.968751,-18.150002,-23.23125
1763129310558,0.28235307,2.239682,9.548559,0.41523534,0.16584979,-0.09880738,0.027226394,-0.13986945,-0.8943657,-13.875001,-17.175001,-23.925001
1763129310571,0.28235307,2.239682,9.548559,0.4150826,0.2678642,-0.0029016077,0.027226394,-0.13986945,-0.8943657,-13.875001,-17.175001,-23.925001
1763129310572,0.38883367,2.3228326,9.48814,0.4150826,0.2678642,-0.0029016077,0.027226394,-0.13986945,-0.8943657,-13.875001,-17.175001,-23.925001
1763129310579,0.38883367,2.3228326,9.48814,0.4150826,0.2678642,-0.0029016077,0.03158978,-0.14241402,-0.893777,-13.875001,-17.175001,-23.925001
1763129310581,0.38883367,2.3228326,9.48814,0.4150826,0.2678642,-0.0029016077,0.03158978,-0.14241402,-0.893777,-12.187501,-15.806251,-23.625
1763129310592,0.38883367,2.3228326,9.48814,0.40423977,0.40775225,0.034819294,0.03158978,-0.14241402,-0.893777,-12.187501,-15.806251,-23.625
1763129310594,0.4660022,2.5112674,9.317652,0.40423977,0.40775225,0.034819294,0.03158978,-0.14241402,-0.893777,-12.187501,-15.806251,-23.625
1763129310598,0.4660022,2.5112674,9.317652,0.40423977,0.40775225,0.034819294,0.037103686,-0.14427279,-0.89299846,-12.187501,-15.806251,-23.625
1763129310600,0.4660022,2.5112674,9.317652,0.40423977,0.40775225,0.034819294,0.037103686,-0.14427279,-0.89299846,-13.781251,-19.237501,-24.243752
1763129310614,0.4660022,2.5112674,9.317652,0.36331183,0.41554075,0.08491021,0.037103686,-0.14427279,-0.89299846,-13.781251,-19.237501,-24.243752
1763129310615,0.2883351,2.652444,8.892925,0.36331183,0.41554075,0.08491021,0.037103686,-0.14427279,-0.89299846,-13.781251,-19.237501,-24.243752
1763129310619,0.2883351,2.652444,8.892925,0.36331183,0.41554075,0.08491021,0.037103686,-0.14427279,-0.89299846,-11.868751,-17.8125,-22.85625
1763129310619,0.2883351,2.652444,8.892925,0.36331183,0.41554075,0.08491021,0.042413134,-0.1457828,-0.8920095,-11.868751,-17.8125,-22.85625
1763129310634,0.2650051,2.9210382,8.762517,0.36331183,0.41554075,0.08491021,0.042413134,-0.1457828,-0.8920095,-11.868751,-17.8125,-22.85625
1763129310635,0.2650051,2.9210382,8.762517,0.3243692,0.22250749,0.14492767,0.042413134,-0.1457828,-0.8920095,-11.868751,-17.8125,-22.85625
1763129310639,0.2650051,2.9210382,8.762517,0.3243692,0.22250749,0.14492767,0.045729186,-0.14783992,-0.89078367,-11.868751,-17.8125,-22.85625
1763129310640,0.2650051,2.9210382,8.762517,0.3243692,0.22250749,0.14492767,0.045729186,-0.14783992,-0.89078367,-11.418751,-17.25,-24.54375
1763129310656,0.2650051,2.9210382,8.762517,0.30039275,0.1432478,0.15867212,0.045729186,-0.14783992,-0.89078367,-11.418751,-17.25,-24.54375
1763129310657,0.29671,2.8845477,8.891729,0.30039275,0.1432478,0.15867212,0.045729186,-0.14783992,-0.89078367,-11.418751,-17.25,-24.54375
1763129310659,0.29671,2.8845477,8.891729,0.30039275,0.1432478,0.15867212,0.048226815,-0.15007848,-0.8894781,-11.418751,-17.25,-24.54375
1763129310660,0.29671,2.8845477,8.891729,0.30039275,0.1432478,0.15867212,0.048226815,-0.15007848,-0.8894781,-12.093751,-17.23125,-22.612501
1763129310676,0.29671,2.8845477,8.891729,0.2961167,0.30757043,0.15531237,0.048226815,-0.15007848,-0.8894781,-12.093751,-17.23125,-22.612501
1763129310677,0.38285163,2.9736803,9.180662,0.2961167,0.30757043,0.15531237,0.048226815,-0.15007848,-0.8894781,-12.093751,-17.23125,-22.612501
1763129310678,0.38285163,2.9736803,9.180662,0.2961167,0.30757043,0.15531237,0.052190866,-0.1515158,-0.8881532,-12.093751,-17.23125,-22.612501
1763129310679,0.38285163,2.9736803,9.180662,0.2961167,0.30757043,0.15531237,0.052190866,-0.1515158,-0.8881532,-14.493751,-19.706251,-22.368752
1763129310698,0.38285163,2.9736803,9.180662,0.2961167,0.30757043,0.15531237,0.057787895,-0.1520126,-0.8866539,-14.493751,-19.706251,-22.368752
1763129310699,0.38285163,2.9736803,9.180662,0.2961167,0.30757043,0.15531237,0.057787895,-0.1520126,-0.8866539,-19.0125,-21.375,-18.5625
1763129310700,0.38285163,2.9736803,9.180662,0.285732,0.4987711,0.1802051,0.057787895,-0.1520126,-0.8866539,-19.0125,-21.375,-18.5625
1763129310701,0.3272185,3.074179,9.262018,0.285732,0.4987711,0.1802051,0.057787895,-0.1520126,-0.8866539,-19.0125,-21.375,-18.5625
1763129310718,0.3272185,3.074179,9.262018,0.285732,0.4987711,0.1802051,0.06333287,-0.15189181,-0.8848047,-19.0125,-21.375,-18.5625
1763129310718,0.3272185,3.074179,9.262018,0.2310596,0.5348121,0.2629773,0.06333287,-0.15189181,-0.8848047,-19.0125,-21.375,-18.5625
1763129310720,0.2219343,3.065804,8.935996,0.2310596,0.5348121,0.2629773,0.06333287,-0.15189181,-0.8848047,-19.0125,-21.375,-18.5625
1763129310721,0.2219343,3.065804,8.935996,0.2310596,0.5348121,0.2629773,0.06333287,-0.15189181,-0.8848047,-16.725,-18.91875,-18.54375
1763129310738,0.2219343,3.065804,8.935996,0.2310596,0.5348121,0.2629773,0.06333287,-0.15189181,-0.8848047,-16.575,-19.6875,-20.118752
1763129310739,0.2219343,3.065804,8.935996,0.15256348,0.50961393,0.3460549,0.06333287,-0.15189181,-0.8848047,-16.575,-19.6875,-20.118752
1763129310740,0.2219343,3.065804,8.935996,0.15256348,0.50961393,0.3460549,0.068173334,-0.15121646,-0.88264936,-16.575,-19.6875,-20.118752
1763129310741,0.2440679,3.1310084,8.897711,0.15256348,0.50961393,0.3460549,0.068173334,-0.15121646,-0.88264936,-16.575,-19.6875,-20.118752
1763129310757,0.2440679,3.1310084,8.897711,0.15256348,0.50961393,0.3460549,0.068173334,-0.15121646,-0.88264936,-15.39375,-17.643751,-19.3875
1763129310760,0.2440679,3.1310084,8.897711,0.117438756,0.55985755,0.38591382,0.068173334,-0.15121646,-0.88264936,-15.39375,-17.643751,-19.3875
1763129310760,0.2440679,3.1310084,8.897711,0.117438756,0.55985755,0.38591382,0.07323197,-0.15002811,-0.88029116,-15.39375,-17.643751,-19.3875
1763129310761,0.15613168,3.2733815,9.062218,0.117438756,0.55985755,0.38591382,0.07323197,-0.15002811,-0.88029116,-15.39375,-17.643751,-19.3875
1763129310778,0.15613168,3.2733815,9.062218,0.117438756,0.55985755,0.38591382,0.07323197,-0.15002811,-0.88029116,-16.29375,-21.393751,-20.025002
1763129310781,0.15613168,3.2733815,9.062218,0.13164136,0.5357284,0.40515608,0.07323197,-0.15002811,-0.88029116,-16.29375,-21.393751,-20.025002
1763129310781,0.0634098,3.1998022,9.060423,0.13164136,0.5357284,0.40515608,0.07323197,-0.15002811,-0.88029116,-16.29375,-21.393751,-20.025002
1763129310783,0.0634098,3.1998022,9.060423,0.13164136,0.5357284,0.40515608,0.07811637,-0.14909816,-0.8777717,-16.29375,-21.393751,-20.025002
1763129310798,0.0634098,3.1998022,9.060423,0.13164136,0.5357284,0.40515608,0.07811637,-0.14909816,-0.8777717,-16.050001,-20.681252,-18.9375
1763129310801,0.0634098,3.1998022,9.060423,0.13164136,0.48777553,0.41248643,0.07811637,-0.14909816,-0.8777717,-16.050001,-20.681252,-18.9375
1763129310811,0.0634098,3.1998022,9.060423,0.13164136,0.48777553,0.41248643,0.08253173,-0.14837214,-0.87524223,-16.050001,-20.681252,-18.9375
1763129310816,0.0317049,3.359523,9.1465645,0.13164136,0.48777553,0.41248643,0.08253173,-0.14837214,-0.87524223,-16.050001,-20.681252,-18.9375
1763129310824,0.0317049,3.359523,9.1465645,0.13164136,0.48777553,0.41248643,0.08253173,-0.14837214,-0.87524223,-12.0375,-15.431251,-20.362501
1763129310825,0.0317049,3.359523,9.1465645,0.13164136,0.48777553,0.41248643,0.086538896,-0.14747885,-0.87297535,-12.0375,-15.431251,-20.362501
1763129310826,0.0317049,3.359523,9.1465645,0.09758565,0.45112363,0.36102107,0.086538896,-0.14747885,-0.87297535,-12.0375,-15.431251,-20.362501
1763129310827,0.08255238,3.7118661,9.136993,0.09758565,0.45112363,0.36102107,0.086538896,-0.14747885,-0.87297535,-12.0375,-15.431251,-20.362501
1763129310837,0.08255238,3.7118661,9.136993,0.09758565,0.45112363,0.36102107,0.086538896,-0.14747885,-0.87297535,-15.468751,-20.8875,-21.73125
1763129310844,0.08255238,3.7118661,9.136993,0.044134982,0.35460702,0.24785839,0.086538896,-0.14747885,-0.87297535,-15.468751,-20.8875,-21.73125
1763129310847,0.08255238,3.7118661,9.136993,0.044134982,0.35460702,0.24785839,0.089620315,-0.14651887,-0.87129605,-15.468751,-20.8875,-21.73125
1763129310847,-0.098703936,3.7070804,8.943174,0.044134982,0.35460702,0.24785839,0.089620315,-0.14651887,-0.87129605,-15.468751,-20.8875,-21.73125
1763129310858,-0.098703936,3.7070804,8.943174,0.044134982,0.35460702,0.24785839,0.089620315,-0.14651887,-0.87129605,-15.88125,-20.962502,-19.25625
1763129310865,-0.098703936,3.7070804,8.943174,0.012064579,0.1847866,0.17486005,0.089620315,-0.14651887,-0.87129605,-15.88125,-20.962502,-19.25625
1763129310866,-0.24705894,3.5587256,8.793025,0.012064579,0.1847866,0.17486005,0.089620315,-0.14651887,-0.87129605,-15.88125,-20.962502,-19.25625
1763129310878,-0.24705894,3.5587256,8.793025,0.012064579,0.1847866,0.17486005,0.09116607,-0.14599629,-0.8701097,-15.88125,-20.962502,-19.25625
1763129310878,-0.24705894,3.5587256,8.793025,0.012064579,0.1847866,0.17486005,0.09116607,-0.14599629,-0.8701097,-14.887501,-20.737501,-19.78125
1763129310886,-0.24705894,3.5587256,8.793025,0.0059559317,0.0754418,0.12079851,0.09116607,-0.14599629,-0.8701097,-14.887501,-20.737501,-19.78125
1763129310886,-0.1274178,3.5300117,8.830712,0.0059559317,0.0754418,0.12079851,0.09116607,-0.14599629,-0.8701097,-14.887501,-20.737501,-19.78125
1763129310897,-0.1274178,3.5300117,8.830712,0.0059559317,0.0754418,0.12079851,0.09178707,-0.14585668,-0.86929804,-14.887501,-20.737501,-19.78125
1763129310898,-0.1274178,3.5300117,8.830712,0.0059559317,0.0754418,0.12079851,0.09178707,-0.14585668,-0.86929804,-12.731251,-18.018751,-22.29375
1763129310907,-0.1274178,3.5300117,8.830712,0.022601997,0.007177661,0.06291907,0.09178707,-0.14585668,-0.86929804,-12.731251,-18.018751,-22.29375
1763129310908,-0.051445685,3.4342988,9.072387,0.022601997,0.007177661,0.06291907,0.09178707,-0.14585668,-0.86929804,-12.731251,-18.018751,-22.29375
1763129310917,-0.051445685,3.4342988,9.072387,0.022601997,0.007177661,0.06291907,0.09191052,-0.14615597,-0.8688482,-12.731251,-18.018751,-22.29375
1763129310918,-0.051445685,3.4342988,9.072387,0.022601997,0.007177661,0.06291907,0.09191052,-0.14615597,-0.8688482,-9.01875,-18.768751,-23.56875
1763129310929,-0.051445685,3.4342988,9.072387,0.07589995,0.045814857,0.04963276,0.09191052,-0.14615597,-0.8688482,-9.01875,-18.768751,-23.56875
1763129310930,-0.06520442,3.3355947,9.182457,0.07589995,0.045814857,0.04963276,0.09191052,-0.14615597,-0.8688482,-9.01875,-18.768751,-23.56875
1763129310938,-0.06520442,3.3355947,9.182457,0.07589995,0.045814857,0.04963276,0.092597745,-0.14672464,-0.8684321,-9.01875,-18.768751,-23.56875
1763129310939,-0.06520442,3.3355947,9.182457,0.07589995,0.045814857,0.04963276,0.092597745,-0.14672464,-0.8684321,-7.5937505,-16.875,-28.050001
1763129310949,-0.06520442,3.3355947,9.182457,0.15531237,0.12965605,0.054061532,0.092597745,-0.14672464,-0.8684321,-7.5937505,-16.875,-28.050001
1763129310950,-0.18185452,3.475575,9.037093,0.15531237,0.12965605,0.054061532,0.092597745,-0.14672464,-0.8684321,-7.5937505,-16.875,-28.050001
1763129310958,-0.18185452,3.475575,9.037093,0.15531237,0.12965605,0.054061532,0.092597745,-0.14672464,-0.8684321,-8.7375,-17.775002,-27.243752
1763129310959,-0.18185452,3.475575,9.037093,0.15531237,0.12965605,0.054061532,0.09438927,-0.14758885,-0.8678521,-8.7375,-17.775002,-27.243752
1763129310970,-0.18185452,3.475575,9.037093,0.17730351,0.09224058,0.027947064,0.09438927,-0.14758885,-0.8678521,-8.7375,-17.775002,-27.243752
1763129310971,-0.35413775,3.5473595,8.763713,0.17730351,0.09224058,0.027947064,0.09438927,-0.14758885,-0.8678521,-8.7375,-17.775002,-27.243752
1763129310979,-0.35413775,3.5473595,8.763713,0.17730351,0.09224058,0.027947064,0.09605147,-0.14881411,-0.86732167,-8.7375,-17.775002,-27.243752
1763129310980,-0.35413775,3.5473595,8.763713,0.17730351,0.09224058,0.027947064,0.09605147,-0.14881411,-0.86732167,-7.4437504,-16.5,-25.837502
1763129310992,-0.35413775,3.5473595,8.763713,0.1414152,-0.040622506,0.0386372,0.09605147,-0.14881411,-0.86732167,-7.4437504,-16.5,-25.837502
1763129310993,-0.34097722,3.3565319,8.748159,0.1414152,-0.040622506,0.0386372,0.09605147,-0.14881411,-0.86732167,-7.4437504,-16.5,-25.837502
1763129310998,-0.34097722,3.3565319,8.748159,0.1414152,-0.040622506,0.0386372,0.09639777,-0.15036027,-0.8668354,-7.4437504,-16.5,-25.837502
1763129310999,-0.34097722,3.3565319,8.748159,0.1414152,-0.040622506,0.0386372,0.09639777,-0.15036027,-0.8668354,-6.8812504,-17.493752,-26.156252
1763129311012,-0.34097722,3.3565319,8.748159,0.123547405,-0.10690133,0.07803798,0.09639777,-0.15036027,-0.8668354,-6.8812504,-17.493752,-26.156252
1763129311014,-0.15433706,3.3607194,9.148359,0.123547405,-0.10690133,0.07803798,0.09639777,-0.15036027,-0.8668354,-6.8812504,-17.493752,-26.156252
1763129311018,-0.15433706,3.3607194,9.148359,0.123547405,-0.10690133,0.07803798,0.09595055,-0.1520748,-0.8663228,-6.8812504,-17.493752,-26.156252
1763129311019,-0.15433706,3.3607194,9.148359,0.123547405,-0.10690133,0.07803798,0.09595055,-0.1520748,-0.8663228,-7.6875005,-17.212502,-27.375002
1763129311033,-0.15433706,3.3607194,9.148359,0.17119485,0.0015271619,0.082466744,0.09595055,-0.1520748,-0.8663228,-7.6875005,-17.212502,-27.375002
1763129311034,-0.14656039,3.4923246,9.493524,0.17119485,0.0015271619,0.082466744,0.09595055,-0.1520748,-0.8663228,-7.6875005,-17.212502,-27.375002
1763129311038,-0.14656039,3.4923246,9.493524,0.17119485,0.0015271619,0.082466744,0.09661889,-0.15370136,-0.8657057,-7.6875005,-17.212502,-27.375002
1763129311039,-0.14656039,3.4923246,9.493524,0.17119485,0.0015271619,0.082466744,0.09661889,-0.15370136,-0.8657057,-9.0375,-18.46875,-25.031252
1763129311055,-0.14656039,3.4923246,9.493524,0.20219624,0.12690715,0.08659008,0.09661889,-0.15370136,-0.8657057,-9.0375,-18.46875,-25.031252
1763129311056,-0.4977071,3.370889,9.266804,0.20219624,0.12690715,0.08659008,0.09661889,-0.15370136,-0.8657057,-9.0375,-18.46875,-25.031252
1763129311060,-0.4977071,3.370889,9.266804,0.20219624,0.12690715,0.08659008,0.09661889,-0.15370136,-0.8657057,-8.175,-18.28125,-25.575
1763129311075,-0.4977071,3.370889,9.266804,0.14034618,0.1621846,0.17043127,0.09661889,-0.15370136,-0.8657057,-8.175,-18.28125,-25.575
1763129311076,-0.6203393,3.269792,9.050852,0.14034618,0.1621846,0.17043127,0.09661889,-0.15370136,-0.8657057,-8.175,-18.28125,-25.575
1763129311077,-0.6203393,3.269792,9.050852,0.14034618,0.1621846,0.17043127,0.098142445,-0.15496981,-0.8653995,-8.175,-18.28125,-25.575
1763129311079,-0.6203393,3.269792,9.050852,0.14034618,0.1621846,0.17043127,0.100129426,-0.15515408,-0.86442447,-8.175,-18.28125,-25.575
1763129311080,-0.6203393,3.269792,9.050852,0.14034618,0.1621846,0.17043127,0.100129426,-0.15515408,-0.86442447,-7.5000005,-17.643751,-26.306252
1763129311096,-0.6203393,3.269792,9.050852,0.04459313,0.1915061,0.2600757,0.100129426,-0.15515408,-0.86442447,-7.5000005,-17.643751,-26.306252
1763129311097,-0.41754755,3.3559337,9.181859,0.04459313,0.1915061,0.2600757,0.100129426,-0.15515408,-0.86442447,-7.5000005,-17.643751,-26.306252
1763129311098,-0.41754755,3.3559337,9.181859,0.04459313,0.1915061,0.2600757,0.10193603,-0.15428317,-0.86304355,-7.5000005,-17.643751,-26.306252
1763129311099,-0.41754755,3.3559337,9.181859,0.04459313,0.1915061,0.2600757,0.10193603,-0.15428317,-0.86304355,-9.4125,-19.21875,-26.75625
1763129311118,-0.41754755,3.3559337,9.181859,0.04459313,0.1915061,0.2600757,0.10362517,-0.15274276,-0.8617632,-9.4125,-19.21875,-26.75625
1763129311119,-0.41754755,3.3559337,9.181859,-0.026419902,0.26847506,0.28909177,0.10362517,-0.15274276,-0.8617632,-9.4125,-19.21875,-26.75625
1763129311121,-0.41754755,3.3559337,9.181859,-0.026419902,0.26847506,0.28909177,0.10362517,-0.15274276,-0.8617632,-6.4875,-15.168751,-27.4125
1763129311122,-0.2650051,3.5174494,9.347562,-0.026419902,0.26847506,0.28909177,0.10362517,-0.15274276,-0.8617632,-6.4875,-15.168751,-27.4125
1763129311139,-0.2650051,3.5174494,9.347562,-0.026419902,0.26847506,0.28909177,0.10551268,-0.15051435,-0.86058927,-6.4875,-15.168751,-27.4125
1763129311139,-0.2650051,3.5174494,9.347562,-0.094378605,0.34834564,0.26542073,0.10551268,-0.15051435,-0.86058927,-6.4875,-15.168751,-27.4125
1763129311140,-0.4336991,3.5958142,9.172886,-0.094378605,0.34834564,0.26542073,0.10551268,-0.15051435,-0.86058927,-6.4875,-15.168751,-27.4125
1763129311141,-0.4336991,3.5958142,9.172886,-0.094378605,0.34834564,0.26542073,0.10551268,-0.15051435,-0.86058927,-7.3125005,-17.118752,-27.000002
1763129311159,-0.4336991,3.5958142,9.172886,-0.094378605,0.34834564,0.26542073,0.10692897,-0.14781901,-0.8590178,-7.3125005,-17.118752,-27.000002
1763129311160,-0.4336991,3.5958142,9.172886,-0.18112141,0.28206682,0.25488332,0.10692897,-0.14781901,-0.8590178,-7.3125005,-17.118752,-27.000002
1763129311161,-0.6538388,3.5306098,8.970094,-0.18112141,0.28206682,0.25488332,0.10692897,-0.14781901,-0.8590178,-7.3125005,-17.118752,-27.000002
1763129311162,-0.6538388,3.5306098,8.970094,-0.18112141,0.28206682,0.25488332,0.10692897,-0.14781901,-0.8590178,-7.8750005,-19.331251,-25.218752
1763129311178,-0.6538388,3.5306098,8.970094,-0.18112141,0.28206682,0.25488332,0.10692897,-0.14781901,-0.8590178,-8.2875,-17.5125,-26.868752
1763129311181,-0.6538388,3.5306098,8.970094,-0.18112141,0.28206682,0.25488332,0.10751119,-0.14524299,-0.8571353,-8.2875,-17.5125,-26.868752
1763129311182,-0.6538388,3.5306098,8.970094,-0.21578798,0.1574504,0.26832235,0.10751119,-0.14524299,-0.8571353,-8.2875,-17.5125,-26.868752
1763129311184,-0.47258246,3.6245282,9.071789,-0.21578798,0.1574504,0.26832235,0.10751119,-0.14524299,-0.8571353,-8.2875,-17.5125,-26.868752
1763129311198,-0.47258246,3.6245282,9.071789,-0.21578798,0.1574504,0.26832235,0.10751119,-0.14524299,-0.8571353,-6.05625,-17.94375,-25.95
1763129311200,-0.25842485,3.8380876,9.135797,-0.21578798,0.1574504,0.26832235,0.10751119,-0.14524299,-0.8571353,-6.05625,-17.94375,-25.95
1763129311202,-0.25842485,3.8380876,9.135797,-0.1838703,0.08567379,0.19685118,0.10751119,-0.14524299,-0.8571353,-6.05625,-17.94375,-25.95
1763129311203,-0.25842485,3.8380876,9.135797,-0.1838703,0.08567379,0.19685118,0.10747125,-0.14353882,-0.85566324,-6.05625,-17.94375,-25.95
1763129311218,-0.25842485,3.8380876,9.135797,-0.1838703,0.08567379,0.19685118,0.10747125,-0.14353882,-0.85566324,-6.0375004,-15.543751,-27.337502
1763129311223,-0.16570297,3.7920256,9.067003,-0.1838703,0.08567379,0.19685118,0.10747125,-0.14353882,-0.85566324,-6.0375004,-15.543751,-27.337502
1763129311224,-0.16570297,3.7920256,9.067003,-0.1838703,0.08567379,0.19685118,0.1071802,-0.14342473,-0.8544302,-6.0375004,-15.543751,-27.337502
1763129311225,-0.16570297,3.7920256,9.067003,-0.08949169,-9.162972E-4,0.09346231,0.1071802,-0.14342473,-0.8544302,-6.0375004,-15.543751,-27.337502
1763129311238,-0.16570297,3.7920256,9.067003,-0.08949169,-9.162972E-4,0.09346231,0.1071802,-0.14342473,-0.8544302,-6.5625005,-16.29375,-26.38125
1763129311243,-0.16570297,3.7920256,9.067003,-0.08949169,-9.162972E-4,0.09346231,0.10713737,-0.14388524,-0.85375935,-6.5625005,-16.29375,-26.38125
1763129311244,-0.16630118,3.63051,8.915657,-0.08949169,-9.162972E-4,0.09346231,0.10713737,-0.14388524,-0.85375935,-6.5625005,-16.29375,-26.38125
1763129311245,-0.16630118,3.63051,8.915657,-0.023518294,-0.004734202,-9.162972E-4,0.10713737,-0.14388524,-0.85375935,-6.5625005,-16.29375,-26.38125
1763129311257,-0.16630118,3.63051,8.915657,-0.023518294,-0.004734202,-9.162972E-4,0.10713737,-0.14388524,-0.85375935,-8.25,-19.275002,-27.000002
1763129311264,-0.16630118,3.63051,8.915657,-0.054366965,-0.021685699,-0.027030766,0.10713737,-0.14388524,-0.85375935,-8.25,-19.275002,-27.000002
1763129311265,-0.16630118,3.63051,8.915657,-0.054366965,-0.021685699,-0.027030766,0.106707014,-0.14401273,-0.8535322,-8.25,-19.275002,-27.000002
1763129311266,-0.25004998,3.5156546,8.740383,-0.054366965,-0.021685699,-0.027030766,0.106707014,-0.14401273,-0.8535322,-8.25,-19.275002,-27.000002
1763129311277,-0.25004998,3.5156546,8.740383,-0.054366965,-0.021685699,-0.027030766,0.106707014,-0.14401273,-0.8535322,-6.8250003,-17.00625,-27.187502
1763129311285,-0.25004998,3.5156546,8.740383,-0.13820815,-0.10033454,-0.04046979,0.106707014,-0.14401273,-0.8535322,-6.8250003,-17.00625,-27.187502
1763129311286,-0.28414768,3.6382868,8.810373,-0.13820815,-0.10033454,-0.04046979,0.106707014,-0.14401273,-0.8535322,-6.8250003,-17.00625,-27.187502
1763129311299,-0.28414768,3.6382868,8.810373,-0.13820815,-0.10033454,-0.04046979,0.10533397,-0.14362152,-0.85351074,-6.8250003,-17.00625,-27.187502
1763129311300,-0.28414768,3.6382868,8.810373,-0.13820815,-0.10033454,-0.04046979,0.10533397,-0.14362152,-0.85351074,-7.8562503,-17.737501,-27.150002
1763129311306,-0.28414768,3.6382868,8.810373,-0.20906848,-0.14630212,-0.066889696,0.10533397,-0.14362152,-0.85351074,-7.8562503,-17.737501,-27.150002
1763129311307,-0.28055847,3.5318062,8.991031,-0.20906848,-0.14630212,-0.066889696,0.10533397,-0.14362152,-0.85351074,-7.8562503,-17.737501,-27.150002
1763129311317,-0.28055847,3.5318062,8.991031,-0.20906848,-0.14630212,-0.066889696,0.103527576,-0.14285517,-0.85335445,-7.8562503,-17.737501,-27.150002
1763129311318,-0.28055847,3.5318062,8.991031,-0.20906848,-0.14630212,-0.066889696,0.103527576,-0.14285517,-0.85335445,-7.5000005,-17.643751,-26.306252
1763129311328,-0.26979074,3.3720853,9.0849495,-0.20906848,-0.14630212,-0.066889696,0.103527576,-0.14285517,-0.85335445,-7.5000005,-17.643751,-26.306252
1763129311328,-0.26979074,3.3720853,9.0849495,-0.22785257,-0.14477496,-0.082924895,0.103527576,-0.14285517,-0.85335445,-7.5000005,-17.643751,-26.306252
1763129311339,-0.26979074,3.3720853,9.0849495,-0.22785257,-0.14477496,-0.082924895,0.10148627,-0.1417647,-0.8536367,-7.5000005,-17.643751,-26.306252
1763129311340,-0.26979074,3.3720853,9.0849495,-0.22785257,-0.14477496,-0.082924895,0.10148627,-0.1417647,-0.8536367,-7.4437504,-16.5,-25.5375
1763129311349,-0.26979074,3.3720853,9.0849495,-0.22174391,-0.13332124,-0.10430516,0.10148627,-0.1417647,-0.8536367,-7.4437504,-16.5,-25.5375
1763129311350,-0.276371,3.324827,9.220742,-0.22174391,-0.13332124,-0.10430516,0.10148627,-0.1417647,-0.8536367,-7.4437504,-16.5,-25.5375
1763129311358,-0.276371,3.324827,9.220742,-0.22174391,-0.13332124,-0.10430516,0.09939626,-0.140505,-0.8543944,-7.4437504,-16.5,-25.5375
1763129311359,-0.276371,3.324827,9.220742,-0.22174391,-0.13332124,-0.10430516,0.09939626,-0.140505,-0.8543944,-8.7375,-17.775002,-28.29375
1763129311370,-0.276371,3.324827,9.220742,-0.27183482,-0.11423171,-0.10231985,0.09939626,-0.140505,-0.8543944,-8.7375,-17.775002,-28.29375
1763129311371,-0.35114673,3.242873,9.2997055,-0.27183482,-0.11423171,-0.10231985,0.09939626,-0.140505,-0.8543944,-8.7375,-17.775002,-28.29375
1763129311379,-0.35114673,3.242873,9.2997055,-0.27183482,-0.11423171,-0.10231985,0.097193524,-0.13864309,-0.85526603,-8.7375,-17.775002,-28.29375
1763129311380,-0.35114673,3.242873,9.2997055,-0.27183482,-0.11423171,-0.10231985,0.097193524,-0.13864309,-0.85526603,-6.9187503,-15.731251,-25.725
1763129311390,-0.35114673,3.242873,9.2997055,-0.34483317,-0.14080434,-0.045662142,0.097193524,-0.13864309,-0.85526603,-6.9187503,-15.731251,-25.725
1763129311391,-0.44805604,2.9593234,9.174082,-0.34483317,-0.14080434,-0.045662142,0.097193524,-0.13864309,-0.85526603,-6.9187503,-15.731251,-25.725
1763129311398,-0.44805604,2.9593234,9.174082,-0.34483317,-0.14080434,-0.045662142,0.09442185,-0.13617545,-0.8559329,-6.9187503,-15.731251,-25.725
1763129311400,-0.44805604,2.9593234,9.174082,-0.34483317,-0.14080434,-0.045662142,0.09442185,-0.13617545,-0.8559329,-7.8187504,-16.44375,-26.868752
1763129311413,-0.44805604,2.9593234,9.174082,-0.38133234,-0.22327107,0.01725693,0.09442185,-0.13617545,-0.8559329,-7.8187504,-16.44375,-26.868752
1763129311414,-0.47258246,2.8031917,9.174082,-0.38133234,-0.22327107,0.01725693,0.09442185,-0.13617545,-0.8559329,-7.8187504,-16.44375,-26.868752
1763129311418,-0.47258246,2.8031917,9.174082,-0.38133234,-0.22327107,0.01725693,0.0906669,-0.13355587,-0.856618,-7.8187504,-16.44375,-26.868752
1763129311419,-0.47258246,2.8031917,9.174082,-0.38133234,-0.22327107,0.01725693,0.0906669,-0.13355587,-0.856618,-7.1250005,-15.150001,-27.45
1763129311432,-0.47258246,2.8031917,9.174082,-0.1472184,0.038179047,0.04382955,0.0906669,-0.13355587,-0.856618,-7.1250005,-15.150001,-27.45
1763129311433,-0.5952146,2.7888348,9.884152,-0.1472184,0.038179047,0.04382955,0.0906669,-0.13355587,-0.856618,-7.1250005,-15.150001,-27.45
1763129311437,-0.5952146,2.7888348,9.884152,-0.1472184,0.038179047,0.04382955,0.09028003,-0.1315888,-0.85687524,-7.1250005,-15.150001,-27.45
1763129311438,-0.5952146,2.7888348,9.884152,-0.1472184,0.038179047,0.04382955,0.09028003,-0.1315888,-0.85687524,-9.806251,-15.431251,-24.69375
1763129311453,-0.4869394,3.1118658,9.564711,-0.1472184,0.038179047,0.04382955,0.09028003,-0.1315888,-0.85687524,-9.806251,-15.431251,-24.69375
1763129311454,-0.4869394,3.1118658,9.564711,0.2942841,0.107817635,-0.0016798781,0.09028003,-0.1315888,-0.85687524,-9.806251,-15.431251,-24.69375
1763129311459,-0.4869394,3.1118658,9.564711,0.2942841,0.107817635,-0.0016798781,0.09254989,-0.13281806,-0.8573806,-9.806251,-15.431251,-24.69375
1763129311460,-0.4869394,3.1118658,9.564711,0.2942841,0.107817635,-0.0016798781,0.09254989,-0.13281806,-0.8573806,-5.83125,-14.38125,-28.35
1763129311474,-0.25722843,3.3020952,8.0715885,0.2942841,0.107817635,-0.0016798781,0.09254989,-0.13281806,-0.8573806,-5.83125,-14.38125,-28.35
1763129311475,-0.25722843,3.3020952,8.0715885,0.21517712,-0.24740024,0.012064579,0.09254989,-0.13281806,-0.8573806,-5.83125,-14.38125,-28.35
1763129311481,-0.25722843,3.3020952,8.0715885,0.21517712,-0.24740024,0.012064579,0.091655575,-0.1356209,-0.8573075,-5.83125,-14.38125,-28.35
1763129311482,-0.25722843,3.3020952,8.0715885,0.21517712,-0.24740024,0.012064579,0.091655575,-0.1356209,-0.8573075,-8.025001,-16.800001,-25.781252
1763129311501,-0.25722843,3.3020952,8.0715885,-0.28787002,-0.5227475,-0.005497783,0.091655575,-0.1356209,-0.8573075,-8.025001,-16.800001,-25.781252
1763129311501,-0.317049,3.0592237,8.041678,-0.28787002,-0.5227475,-0.005497783,0.091655575,-0.1356209,-0.8573075,-8.025001,-16.800001,-25.781252
1763129311502,-0.317049,3.0592237,8.041678,-0.28787002,-0.5227475,-0.005497783,0.091655575,-0.1356209,-0.8573075,-9.0375,-16.06875,-26.118752
1763129311502,-0.317049,3.0592237,8.041678,-0.28787002,-0.5227475,-0.005497783,0.08660248,-0.13616076,-0.85653025,-9.0375,-16.06875,-26.118752
