timestamp,accX,accY,accZ,gyroX,gyroY,gyroZ,rotX,rotY,rotZ,magX,magY,magZ
1763129383202,-0.48155555,6.1992054,7.548159,-0.05894845,-0.04612029,0.058032155,0.33128366,-0.03800231,-0.15603152,-6.9375005,-0.80625004,-33.825
1763129383203,-0.48155555,6.1992054,7.548159,-0.018173227,-0.1084285,0.03848448,0.33128366,-0.03800231,-0.15603152,-6.9375005,-0.80625004,-33.825
1763129383203,-0.48155555,6.1992054,7.548159,-0.018173227,-0.1084285,0.03848448,0.33108678,-0.038969584,-0.15635066,-6.9375005,-0.80625004,-33.825
1763129383203,0.0047856453,6.239285,7.7850485,-0.018173227,-0.1084285,0.03848448,0.33108678,-0.038969584,-0.15635066,-6.9375005,-0.80625004,-33.825
1763129383217,0.0047856453,6.239285,7.7850485,-0.018173227,-0.1084285,0.03848448,0.33108678,-0.038969584,-0.15635066,-11.025001,-0.28125,-31.087502
1763129383224,0.0047856453,6.239285,7.7850485,-0.098654665,-0.0056504994,0.028099779,0.33108678,-0.038969584,-0.15635066,-11.025001,-0.28125,-31.087502
1763129383224,0.0047856453,6.239285,7.7850485,-0.098654665,-0.0056504994,0.028099779,0.33002377,-0.03927335,-0.15546024,-11.025001,-0.28125,-31.087502
1763129383225,-0.1052842,6.2057858,7.765906,-0.098654665,-0.0056504994,0.028099779,0.33002377,-0.03927335,-0.15546024,-11.025001,-0.28125,-31.087502
1763129383239,-0.1052842,6.2057858,7.765906,-0.098654665,-0.0056504994,0.028099779,0.33002377,-0.03927335,-0.15546024,-6.9,-0.80625004,-35.79375
1763129383244,-0.1052842,6.2057858,7.765906,-0.06750056,-0.009926553,0.029474225,0.33002377,-0.03927335,-0.15546024,-6.9,-0.80625004,-35.79375
1763129383245,-0.15613168,6.2901325,7.728817,-0.06750056,-0.009926553,0.029474225,0.33002377,-0.03927335,-0.15546024,-6.9,-0.80625004,-35.79375
1763129383258,-0.15613168,6.2901325,7.728817,-0.06750056,-0.009926553,0.029474225,0.3292793,-0.039548695,-0.15484212,-6.9,-0.80625004,-35.79375
1763129383258,-0.15613168,6.2901325,7.728817,-0.06750056,-0.009926553,0.029474225,0.3292793,-0.039548695,-0.15484212,-9.618751,-0.7875,-34.162502
1763129383265,-0.15613168,6.2901325,7.728817,0.023518294,-0.05222894,-0.0051923506,0.3292793,-0.039548695,-0.15484212,-9.618751,-0.7875,-34.162502
1763129383266,-0.02213361,6.242276,7.6271224,0.023518294,-0.05222894,-0.0051923506,0.3292793,-0.039548695,-0.15484212,-9.618751,-0.7875,-34.162502
1763129383277,-0.02213361,6.242276,7.6271224,0.023518294,-0.05222894,-0.0051923506,0.3295215,-0.04019142,-0.15471879,-9.618751,-0.7875,-34.162502
1763129383278,-0.02213361,6.242276,7.6271224,0.023518294,-0.05222894,-0.0051923506,0.3295215,-0.04019142,-0.15471879,-5.9437504,-0.58125,-33.600002
1763129383286,-0.02213361,6.242276,7.6271224,0.042607818,-0.045967575,-0.027488915,0.3295215,-0.04019142,-0.15471879,-5.9437504,-0.58125,-33.600002
1763129383287,-0.15613168,6.134001,7.594819,0.042607818,-0.045967575,-0.027488915,0.3295215,-0.04019142,-0.15471879,-5.9437504,-0.58125,-33.600002
1763129383297,-0.15613168,6.134001,7.594819,0.042607818,-0.045967575,-0.027488915,0.3299719,-0.040854763,-0.15451096,-5.9437504,-0.58125,-33.600002
1763129383297,-0.15613168,6.134001,7.594819,0.042607818,-0.045967575,-0.027488915,0.3299719,-0.040854763,-0.15451096,-7.8375,-2.15625,-34.95
1763129383307,-0.15613168,6.134001,7.594819,0.013591741,0.008857539,-0.029626941,0.3299719,-0.040854763,-0.15451096,-7.8375,-2.15625,-34.95
1763129383308,-0.25004998,6.0598235,7.4590263,0.013591741,0.008857539,-0.029626941,0.3299719,-0.040854763,-0.15451096,-7.8375,-2.15625,-34.95
1763129383318,-0.25004998,6.0598235,7.4590263,0.013591741,0.008857539,-0.029626941,0.3301409,-0.04078232,-0.15449724,-7.8375,-2.15625,-34.95
1763129383319,-0.25004998,6.0598235,7.4590263,0.013591741,0.008857539,-0.029626941,0.3301409,-0.04078232,-0.15449724,-9.675,-1.9312501,-34.65
1763129383328,-0.25004998,6.0598235,7.4590263,-0.022143848,0.0151189035,-0.018173227,0.3301409,-0.04078232,-0.15449724,-9.675,-1.9312501,-34.65
1763129383329,-0.44985065,5.966503,7.4733834,-0.022143848,0.0151189035,-0.018173227,0.3301409,-0.04078232,-0.15449724,-9.675,-1.9312501,-34.65
1763129383338,-0.44985065,5.966503,7.4733834,-0.022143848,0.0151189035,-0.018173227,0.33003652,-0.04051529,-0.1545049,-9.675,-1.9312501,-34.65
1763129383339,-0.44985065,5.966503,7.4733834,-0.022143848,0.0151189035,-0.018173227,0.33003652,-0.04051529,-0.1545049,-7.3500004,-1.3875,-33.65625
1763129383350,-0.44985065,5.966503,7.4733834,-0.01924224,-0.0097738365,0.004123337,0.33003652,-0.04051529,-0.1545049,-7.3500004,-1.3875,-33.65625
1763129383351,-0.39601216,5.953343,7.5409803,-0.01924224,-0.0097738365,0.004123337,0.33003652,-0.04051529,-0.1545049,-7.3500004,-1.3875,-33.65625
1763129383358,-0.39601216,5.953343,7.5409803,-0.01924224,-0.0097738365,0.004123337,0.3298173,-0.040377267,-0.15492262,-7.3500004,-1.3875,-33.65625
1763129383359,-0.39601216,5.953343,7.5409803,-0.01924224,-0.0097738365,0.004123337,0.3298173,-0.040377267,-0.15492262,-6.6562505,-0.09375,-34.537502
1763129383370,-0.39601216,5.953343,7.5409803,-3.054324E-4,-0.026419902,0.0012217296,0.3298173,-0.040377267,-0.15492262,-6.6562505,-0.09375,-34.537502
1763129383371,-0.3589234,5.956932,7.602596,-3.054324E-4,-0.026419902,0.0012217296,0.3298173,-0.040377267,-0.15492262,-6.6562505,-0.09375,-34.537502
1763129383377,-0.3589234,5.956932,7.602596,-3.054324E-4,-0.026419902,0.0012217296,0.32966164,-0.040477984,-0.15533097,-6.6562505,-0.09375,-34.537502
1763129383378,-0.3589234,5.956932,7.602596,-3.054324E-4,-0.026419902,0.0012217296,0.32966164,-0.040477984,-0.15533097,-7.7812505,-1.0125,-35.23125
1763129383391,-0.3589234,5.956932,7.602596,0.0042760535,-0.009315688,0.0018325944,0.32966164,-0.040477984,-0.15533097,-7.7812505,-1.0125,-35.23125
1763129383392,-0.37447673,5.941977,7.6941214,0.0042760535,-0.009315688,0.0018325944,0.32966164,-0.040477984,-0.15533097,-7.7812505,-1.0125,-35.23125
1763129383397,-0.37447673,5.941977,7.6941214,0.0042760535,-0.009315688,0.0018325944,0.32951483,-0.040479872,-0.15565188,-7.7812505,-1.0125,-35.23125
1763129383398,-0.37447673,5.941977,7.6941214,0.0042760535,-0.009315688,0.0018325944,0.32951483,-0.040479872,-0.15565188,-7.1625004,-0.8625,-35.081253
1763129383412,-0.37447673,5.941977,7.6941214,-0.013744458,0.019853106,0.013591741,0.32951483,-0.040479872,-0.15565188,-7.1625004,-0.8625,-35.081253
1763129383413,-0.4336991,5.941977,7.5936227,-0.013744458,0.019853106,0.013591741,0.32951483,-0.040479872,-0.15565188,-7.1625004,-0.8625,-35.081253
1763129383419,-0.4336991,5.941977,7.5936227,-0.013744458,0.019853106,0.013591741,0.32913312,-0.040199623,-0.15583661,-7.1625004,-0.8625,-35.081253
1763129383420,-0.4336991,5.941977,7.5936227,-0.013744458,0.019853106,0.013591741,0.32913312,-0.040199623,-0.15583661,-9.450001,-1.85625,-32.775
1763129383433,-0.4336991,5.941977,7.5936227,-0.024740024,0.019547673,0.038026333,0.32913312,-0.040199623,-0.15583661,-9.450001,-1.85625,-32.775
1763129383434,-0.37686956,6.0167527,7.5661054,-0.024740024,0.019547673,0.038026333,0.32913312,-0.040199623,-0.15583661,-9.450001,-1.85625,-32.775
1763129383438,-0.37686956,6.0167527,7.5661054,-0.024740024,0.019547673,0.038026333,0.3287634,-0.039932635,-0.15587428,-9.450001,-1.85625,-32.775
1763129383438,-0.37686956,6.0167527,7.5661054,-0.024740024,0.019547673,0.038026333,0.3287634,-0.039932635,-0.15587428,-7.9687505,0.075,-34.36875
1763129383454,-0.37686956,6.0167527,7.5661054,-0.013591741,7.6358096E-4,0.04657844,0.3287634,-0.039932635,-0.15587428,-7.9687505,0.075,-34.36875
1763129383455,-0.2727818,6.0574307,7.6103725,-0.013591741,7.6358096E-4,0.04657844,0.3287634,-0.039932635,-0.15587428,-7.9687505,0.075,-34.36875
1763129383457,-0.2727818,6.0574307,7.6103725,-0.013591741,7.6358096E-4,0.04657844,0.32859337,-0.039944433,-0.15566593,-7.9687505,0.075,-34.36875
1763129383458,-0.2727818,6.0574307,7.6103725,-0.013591741,7.6358096E-4,0.04657844,0.32859337,-0.039944433,-0.15566593,-9.3,-1.3312501,-32.268753
1763129383476,-0.12083755,6.1417775,7.594819,-0.013591741,7.6358096E-4,0.04657844,0.32859337,-0.039944433,-0.15566593,-9.3,-1.3312501,-32.268753
1763129383477,-0.12083755,6.1417775,7.594819,0.003970621,0.0059559317,0.037262753,0.32859337,-0.039944433,-0.15566593,-9.3,-1.3312501,-32.268753
1763129383479,-0.12083755,6.1417775,7.594819,0.003970621,0.0059559317,0.037262753,0.3285958,-0.040009364,-0.15528293,-9.3,-1.3312501,-32.268753
1763129383480,-0.12083755,6.1417775,7.594819,0.003970621,0.0059559317,0.037262753,0.3285958,-0.040009364,-0.15528293,-8.85,-1.575,-33.581253
1763129383498,-0.12083755,6.1417775,7.594819,-0.007941242,0.007177661,0.01725693,0.3285958,-0.040009364,-0.15528293,-8.85,-1.575,-33.581253
1763129383499,-0.12083755,6.1417775,7.594819,-0.007941242,0.007177661,0.01725693,0.32858813,-0.040150248,-0.15475744,-8.85,-1.575,-33.581253
1763129383500,-0.12083755,6.1417775,7.594819,-0.007941242,0.007177661,0.01725693,0.32858813,-0.040150248,-0.15475744,-6.2625003,-0.16875,-34.256252
1763129383501,-0.22013968,6.096912,7.4548388,-0.007941242,0.007177661,0.01725693,0.32858813,-0.040150248,-0.15475744,-6.2625003,-0.16875,-34.256252
1763129383518,-0.22013968,6.096912,7.4548388,-0.022296565,-0.011453714,0.033444848,0.32858813,-0.040150248,-0.15475744,-6.2625003,-0.16875,-34.256252
1763129383519,-0.22013968,6.096912,7.4548388,-0.022296565,-0.011453714,0.033444848,0.32858813,-0.040150248,-0.15475744,-7.05,-1.63125,-33.6375
1763129383521,-0.2117648,6.145965,7.5326056,-0.022296565,-0.011453714,0.033444848,0.32858813,-0.040150248,-0.15475744,-7.05,-1.63125,-33.6375
1763129383522,-0.2117648,6.145965,7.5326056,-0.022296565,-0.011453714,0.033444848,0.3285122,-0.040388633,-0.1543517,-7.05,-1.63125,-33.6375
1763129383537,-0.2117648,6.145965,7.5326056,-0.022296565,-0.011453714,0.033444848,0.3285122,-0.040388633,-0.1543517,-7.1250005,-1.03125,-35.193752
1763129383539,-0.2117648,6.145965,7.5326056,-0.022296565,-0.007788526,0.028099779,0.3285122,-0.040388633,-0.1543517,-7.1250005,-1.03125,-35.193752
1763129383540,-0.2117648,6.145965,7.5326056,-0.022296565,-0.007788526,0.028099779,0.32842243,-0.04062288,-0.15411009,-7.1250005,-1.03125,-35.193752
1763129383542,-0.23808585,6.105287,7.6462646,-0.022296565,-0.007788526,0.028099779,0.32842243,-0.04062288,-0.15411009,-7.1250005,-1.03125,-35.193752
1763129383557,-0.23808585,6.105287,7.6462646,-0.022296565,-0.007788526,0.028099779,0.32842243,-0.04062288,-0.15411009,-7.3125005,0.056250002,-34.48125
1763129383560,-0.23808585,6.105287,7.6462646,-0.010690134,-0.008246674,0.043982264,0.32842243,-0.04062288,-0.15411009,-7.3125005,0.056250002,-34.48125
1763129383562,-0.23808585,6.105287,7.6462646,-0.010690134,-0.008246674,0.043982264,0.32828274,-0.040848196,-0.15371741,-7.3125005,0.056250002,-34.48125
1763129383563,-0.23449662,6.0550375,7.591828,-0.010690134,-0.008246674,0.043982264,0.32828274,-0.040848196,-0.15371741,-7.3125005,0.056250002,-34.48125
1763129383578,-0.23449662,6.0550375,7.591828,-0.010690134,-0.008246674,0.043982264,0.32828274,-0.040848196,-0.15371741,-6.3750005,0.75,-36.506252
1763129383581,-0.23449662,6.0550375,7.591828,0.0021380268,-0.02367101,0.031001387,0.32828274,-0.040848196,-0.15371741,-6.3750005,0.75,-36.506252
1763129383582,-0.23449662,6.0550375,7.591828,0.0021380268,-0.02367101,0.031001387,0.32823527,-0.04122429,-0.15360329,-6.3750005,0.75,-36.506252
1763129383583,0.022731815,6.2344995,7.737192,0.0021380268,-0.02367101,0.031001387,0.32823527,-0.04122429,-0.15360329,-6.3750005,0.75,-36.506252
1763129383598,0.022731815,6.2344995,7.737192,0.0021380268,-0.02367101,0.031001387,0.32823527,-0.04122429,-0.15360329,-6.24375,-0.1875,-36.05625
1763129383602,0.022731815,6.2344995,7.737192,0.0021380268,-0.02367101,0.031001387,0.32842913,-0.041345995,-0.15318274,-6.24375,-0.1875,-36.05625
1763129383604,0.022731815,6.2344995,7.737192,0.015577052,0.007788526,-0.026267186,0.32842913,-0.041345995,-0.15318274,-6.24375,-0.1875,-36.05625
1763129383606,-0.15014961,6.0987067,7.661818,0.015577052,0.007788526,-0.026267186,0.32842913,-0.041345995,-0.15318274,-6.24375,-0.1875,-36.05625
1763129383618,-0.15014961,6.0987067,7.661818,0.015577052,0.007788526,-0.026267186,0.32842913,-0.041345995,-0.15318274,-6.0750003,0.3375,-35.550003
1763129383622,-0.15014961,6.0987067,7.661818,0.015577052,0.007788526,-0.026267186,0.3284266,-0.04118615,-0.15322347,-6.0750003,0.3375,-35.550003
1763129383623,-0.38464624,6.007181,7.517052,0.015577052,0.007788526,-0.026267186,0.3284266,-0.04118615,-0.15322347,-6.0750003,0.3375,-35.550003
1763129383624,-0.38464624,6.007181,7.517052,9.162972E-4,0.018631376,-0.024281874,0.3284266,-0.04118615,-0.15322347,-6.0750003,0.3375,-35.550003
1763129383637,-0.38464624,6.007181,7.517052,9.162972E-4,0.018631376,-0.024281874,0.3284266,-0.04118615,-0.15322347,-5.71875,1.8937501,-33.881252
1763129383644,-0.38464624,6.007181,7.517052,9.162972E-4,0.018631376,-0.024281874,0.3281431,-0.04084458,-0.15358579,-5.71875,1.8937501,-33.881252
1763129383645,-0.38464624,6.007181,7.517052,-0.035124727,0.019089524,0.003817905,0.3281431,-0.04084458,-0.15358579,-5.71875,1.8937501,-33.881252
1763129383647,-0.41515473,5.9264235,7.5009007,-0.035124727,0.019089524,0.003817905,0.3281431,-0.04084458,-0.15358579,-5.71875,1.8937501,-33.881252
1763129383657,-0.41515473,5.9264235,7.5009007,-0.035124727,0.019089524,0.003817905,0.3281431,-0.04084458,-0.15358579,-7.9875,-1.3687501,-33.99375
1763129383664,-0.41515473,5.9264235,7.5009007,-0.028252495,-0.0025961753,0.031154104,0.3281431,-0.04084458,-0.15358579,-7.9875,-1.3687501,-33.99375
1763129383665,-0.41515473,5.9264235,7.5009007,-0.028252495,-0.0025961753,0.031154104,0.3278113,-0.040763967,-0.15379155,-7.9875,-1.3687501,-33.99375
1763129383667,-0.2213361,6.0107703,7.682157,-0.028252495,-0.0025961753,0.031154104,0.3278113,-0.040763967,-0.15379155,-7.9875,-1.3687501,-33.99375
1763129383678,-0.2213361,6.0107703,7.682157,-0.028252495,-0.0025961753,0.031154104,0.3278113,-0.040763967,-0.15379155,-8.00625,-1.06875,-36.3375
1763129383685,-0.2213361,6.0107703,7.682157,0.01847866,-0.0013744457,0.009468404,0.3278113,-0.040763967,-0.15379155,-8.00625,-1.06875,-36.3375
1763129383686,-0.21355942,6.0346985,7.6953177,0.01847866,-0.0013744457,0.009468404,0.3278113,-0.040763967,-0.15379155,-8.00625,-1.06875,-36.3375
1763129383697,-0.21355942,6.0346985,7.6953177,0.01847866,-0.0013744457,0.009468404,0.32783124,-0.04087266,-0.15375797,-8.00625,-1.06875,-36.3375
1763129383698,-0.21355942,6.0346985,7.6953177,0.01847866,-0.0013744457,0.009468404,0.32783124,-0.04087266,-0.15375797,-8.00625,-1.21875,-34.631252
1763129383706,-0.26919255,6.031708,7.539186,0.01847866,-0.0013744457,0.009468404,0.32783124,-0.04087266,-0.15375797,-8.00625,-1.21875,-34.631252
1763129383708,-0.26919255,6.031708,7.539186,0.017715078,0.015882485,0.009162972,0.32783124,-0.04087266,-0.15375797,-8.00625,-1.21875,-34.631252
1763129383719,-0.26919255,6.031708,7.539186,0.017715078,0.015882485,0.009162972,0.32783124,-0.04087266,-0.15375797,-6.9375005,-1.3125,-36.131252
1763129383720,-0.26919255,6.031708,7.539186,0.017715078,0.015882485,0.009162972,0.32788742,-0.040810615,-0.15361609,-6.9375005,-1.3125,-36.131252
1763129383728,-0.26919255,6.031708,7.539186,-0.008246674,0.012675445,0.016035201,0.32788742,-0.040810615,-0.15361609,-6.9375005,-1.3125,-36.131252
1763129383730,-0.21415763,6.109474,7.489535,-0.008246674,0.012675445,0.016035201,0.32788742,-0.040810615,-0.15361609,-6.9375005,-1.3125,-36.131252
1763129383737,-0.21415763,6.109474,7.489535,-0.008246674,0.012675445,0.016035201,0.32785025,-0.04073773,-0.15358458,-6.9375005,-1.3125,-36.131252
1763129383738,-0.21415763,6.109474,7.489535,-0.008246674,0.012675445,0.016035201,0.32785025,-0.04073773,-0.15358458,-6.76875,-1.0875001,-33.7125
1763129383748,-0.21415763,6.109474,7.489535,-0.025809037,0.0019853106,-0.0030543238,0.32785025,-0.04073773,-0.15358458,-6.76875,-1.0875001,-33.7125
1763129383749,-0.18185452,6.0933228,7.585248,-0.025809037,0.0019853106,-0.0030543238,0.32785025,-0.04073773,-0.15358458,-6.76875,-1.0875001,-33.7125
1763129383758,-0.18185452,6.0933228,7.585248,-0.025809037,0.0019853106,-0.0030543238,0.32778153,-0.040713087,-0.15352245,-6.76875,-1.0875001,-33.7125
1763129383760,-0.18185452,6.0933228,7.585248,-0.025809037,0.0019853106,-0.0030543238,0.32778153,-0.040713087,-0.15352245,-6.7312503,-1.0875001,-35.662502
1763129383770,-0.18185452,6.0933228,7.585248,-0.024587307,-0.0012217296,0.0025961753,0.32778153,-0.040713087,-0.15352245,-6.7312503,-1.0875001,-35.662502
1763129383770,-0.30149564,6.000003,7.6887374,-0.024587307,-0.0012217296,0.0025961753,0.32778153,-0.040713087,-0.15352245,-6.7312503,-1.0875001,-35.662502
1763129383778,-0.30149564,6.000003,7.6887374,-0.024587307,-0.0012217296,0.0025961753,0.32778153,-0.040713087,-0.15352245,-6.7312503,-1.0875001,-35.9625
1763129383779,-0.30149564,6.000003,7.6887374,-0.024587307,-0.0012217296,0.0025961753,0.32759327,-0.040790953,-0.15344949,-6.7312503,-1.0875001,-35.9625
1763129383790,-0.30149564,6.000003,7.6887374,0.0033597562,-0.0050396346,0.02687805,0.32759327,-0.040790953,-0.15344949,-6.7312503,-1.0875001,-35.9625
1763129383792,-0.28414768,6.0155563,7.6779695,0.0033597562,-0.0050396346,0.02687805,0.32759327,-0.040790953,-0.15344949,-6.7312503,-1.0875001,-35.9625
1763129383797,-0.28414768,6.0155563,7.6779695,0.0033597562,-0.0050396346,0.02687805,0.32745692,-0.040898252,-0.1535059,-6.7312503,-1.0875001,-35.9625
1763129383798,-0.28414768,6.0155563,7.6779695,0.0033597562,-0.0050396346,0.02687805,0.32745692,-0.040898252,-0.1535059,-6.58125,1.03125,-34.818752
1763129383811,-0.28414768,6.0155563,7.6779695,0.031154104,-0.008246674,0.016798781,0.32745692,-0.040898252,-0.1535059,-6.58125,1.03125,-34.818752
1763129383812,-0.035294134,6.175277,7.7066836,0.031154104,-0.008246674,0.016798781,0.32745692,-0.040898252,-0.1535059,-6.58125,1.03125,-34.818752
1763129383819,-0.035294134,6.175277,7.7066836,0.031154104,-0.008246674,0.016798781,0.32761803,-0.041032664,-0.15352412,-6.58125,1.03125,-34.818752
1763129383820,-0.035294134,6.175277,7.7066836,0.031154104,-0.008246674,0.016798781,0.32761803,-0.041032664,-0.15352412,-6.5625005,-0.5625,-35.1375
1763129383832,-0.035294134,6.175277,7.7066836,0.01970039,0.014966187,-0.026725333,0.32761803,-0.041032664,-0.15352412,-6.5625005,-0.5625,-35.1375
1763129383834,-0.15194423,6.1244297,7.5230346,0.01970039,0.014966187,-0.026725333,0.32761803,-0.041032664,-0.15352412,-6.5625005,-0.5625,-35.1375
1763129383838,-0.15194423,6.1244297,7.5230346,0.01970039,0.014966187,-0.026725333,0.32784843,-0.041046042,-0.15326244,-6.5625005,-0.5625,-35.1375
1763129383839,-0.15194423,6.1244297,7.5230346,0.01970039,0.014966187,-0.026725333,0.32784843,-0.041046042,-0.15326244,-6.6562505,-0.09375,-34.237503
1763129383854,-0.15194423,6.1244297,7.5230346,-0.008246674,-4.581486E-4,-0.017409647,0.32784843,-0.041046042,-0.15326244,-6.6562505,-0.09375,-34.237503
1763129383855,-0.35234314,6.0281186,7.507481,-0.008246674,-4.581486E-4,-0.017409647,0.32784843,-0.041046042,-0.15326244,-6.6562505,-0.09375,-34.237503
1763129383859,-0.35234314,6.0281186,7.507481,-0.008246674,-4.581486E-4,-0.017409647,0.32784843,-0.041046042,-0.15326244,-6.525,-0.88125,-34.29375
1763129383860,-0.35234314,6.0281186,7.507481,-0.008246674,-4.581486E-4,-0.017409647,0.32792315,-0.041072536,-0.15320122,-6.525,-0.88125,-34.29375
1763129383874,-0.35234314,6.0281186,7.507481,-0.01847866,-0.005345067,0.010384701,0.32792315,-0.041072536,-0.15320122,-6.525,-0.88125,-34.29375
1763129383875,-0.25064817,6.026324,7.630113,-0.01847866,-0.005345067,0.010384701,0.32792315,-0.041072536,-0.15320122,-6.525,-0.88125,-34.29375
1763129383878,-0.25064817,6.026324,7.630113,-0.01847866,-0.005345067,0.010384701,0.32780668,-0.04101929,-0.15340859,-6.525,-0.88125,-34.29375
1763129383879,-0.25064817,6.026324,7.630113,-0.01847866,-0.005345067,0.010384701,0.32780668,-0.04101929,-0.15340859,-5.7937503,0.90000004,-35.006252
1763129383895,-0.25064817,6.026324,7.630113,0.002290743,0.0061086477,0.0018325944,0.32780668,-0.04101929,-0.15340859,-5.7937503,0.90000004,-35.006252
1763129383897,-0.16630118,6.058627,7.650452,0.002290743,0.0061086477,0.0018325944,0.32780668,-0.04101929,-0.15340859,-5.7937503,0.90000004,-35.006252
1763129383898,-0.16630118,6.058627,7.650452,0.002290743,0.0061086477,0.0018325944,0.32780668,-0.04101929,-0.15340859,-6.43125,0.26250002,-36.393753
1763129383901,-0.16630118,6.058627,7.650452,0.002290743,0.0061086477,0.0018325944,0.32776943,-0.040945925,-0.15341309,-6.43125,0.26250002,-36.393753
1763129383918,-0.16630118,6.058627,7.650452,0.01802051,0.010079269,-0.014508039,0.32776943,-0.040945925,-0.15341309,-6.43125,0.26250002,-36.393753
1763129383919,-0.16630118,6.058627,7.650452,0.01802051,0.010079269,-0.014508039,0.3279002,-0.04089348,-0.15335126,-6.43125,0.26250002,-36.393753
1763129383921,-0.16630118,6.058627,7.650452,0.01802051,0.010079269,-0.014508039,0.3279002,-0.04089348,-0.15335126,-5.5875,0.45000002,-35.4375
1763129383922,-0.21535404,6.0526447,7.5756764,0.01802051,0.010079269,-0.014508039,0.3279002,-0.04089348,-0.15335126,-5.5875,0.45000002,-35.4375
1763129383938,-0.21535404,6.0526447,7.5756764,0.01802051,0.010079269,-0.014508039,0.32795537,-0.04080621,-0.15333433,-5.5875,0.45000002,-35.4375
1763129383939,-0.21535404,6.0526447,7.5756764,0.0027488915,0.007788526,-0.009315688,0.32795537,-0.04080621,-0.15333433,-5.5875,0.45000002,-35.4375
1763129383940,-0.30329028,6.018547,7.5469627,0.0027488915,0.007788526,-0.009315688,0.32795537,-0.04080621,-0.15333433,-5.5875,0.45000002,-35.4375
1763129383942,-0.30329028,6.018547,7.5469627,0.0027488915,0.007788526,-0.009315688,0.32795537,-0.04080621,-0.15333433,-5.7000003,-0.375,-35.25
1763129383957,-0.30329028,6.018547,7.5469627,0.0027488915,0.007788526,-0.009315688,0.32795537,-0.04080621,-0.15333433,-5.5875,0.46875003,-34.8375
1763129383958,-0.3080759,6.0358953,7.5960155,0.0027488915,0.007788526,-0.009315688,0.32795537,-0.04080621,-0.15333433,-5.5875,0.46875003,-34.8375
1763129383961,-0.3080759,6.0358953,7.5960155,-0.003970621,-0.0033597562,0.0025961753,0.32795537,-0.04080621,-0.15333433,-5.5875,0.46875003,-34.8375
1763129383963,-0.3080759,6.0358953,7.5960155,-0.003970621,-0.0033597562,0.0025961753,0.32792282,-0.040764596,-0.15344362,-5.5875,0.46875003,-34.8375
1763129383977,-0.3080759,6.0358953,7.5960155,-0.003970621,-0.0033597562,0.0025961753,0.32792282,-0.040764596,-0.15344362,-6.4875,0.41250002,-34.78125
1763129383979,-0.3080759,6.0358953,7.5960155,0.0074830935,-0.011453714,0.0058032153,0.32792282,-0.040764596,-0.15344362,-6.4875,0.41250002,-34.78125
1763129383981,-0.3080759,6.0358953,7.5960155,0.0074830935,-0.011453714,0.0058032153,0.327955,-0.040857658,-0.15365481,-6.4875,0.41250002,-34.78125
1763129383982,-0.19920248,6.065207,7.6390862,0.0074830935,-0.011453714,0.0058032153,0.327955,-0.040857658,-0.15365481,-6.4875,0.41250002,-34.78125
1763129383997,-0.19920248,6.065207,7.6390862,0.0074830935,-0.011453714,0.0058032153,0.327955,-0.040857658,-0.15365481,-6.5062504,-1.03125,-33.6375
1763129384001,-0.19920248,6.065207,7.6390862,0.0025961753,0.018631376,-0.016187917,0.327955,-0.040857658,-0.15365481,-6.5062504,-1.03125,-33.6375
1763129384002,-0.19920248,6.065207,7.6390862,0.0025961753,0.018631376,-0.016187917,0.3279717,-0.040684372,-0.15369731,-6.5062504,-1.03125,-33.6375
1763129384003,-0.15672988,6.0604215,7.5643106,0.0025961753,0.018631376,-0.016187917,0.3279717,-0.040684372,-0.15369731,-6.5062504,-1.03125,-33.6375
1763129384019,-0.15672988,6.0604215,7.5643106,0.0025961753,0.018631376,-0.016187917,0.3279717,-0.040684372,-0.15369731,-5.25,0.69375,-35.25
1763129384022,-0.15672988,6.0604215,7.5643106,0.0025961753,0.018631376,-0.016187917,0.32785428,-0.040599488,-0.15362117,-5.25,0.69375,-35.25
1763129384023,-0.2757728,6.058627,7.556534,0.0025961753,0.018631376,-0.016187917,0.32785428,-0.040599488,-0.15362117,-5.25,0.69375,-35.25
1763129384024,-0.2757728,6.058627,7.556534,-0.016951498,0.012217295,-0.013286309,0.32785428,-0.040599488,-0.15362117,-5.25,0.69375,-35.25
1763129384037,-0.2757728,6.058627,7.556534,-0.016951498,0.012217295,-0.013286309,0.32785428,-0.040599488,-0.15362117,-6.24375,0.4875,-33.65625
1763129384044,-0.26979074,6.0550375,7.698907,-0.016951498,0.012217295,-0.013286309,0.32785428,-0.040599488,-0.15362117,-6.24375,0.4875,-33.65625
1763129384045,-0.26979074,6.0550375,7.698907,-0.016951498,0.012217295,-0.013286309,0.32793963,-0.040666614,-0.15375577,-6.24375,0.4875,-33.65625
1763129384047,-0.26979074,6.0550375,7.698907,0.0051923506,-0.0097738365,-0.0030543238,0.32793963,-0.040666614,-0.15375577,-6.24375,0.4875,-33.65625
1763129384057,-0.26979074,6.0550375,7.698907,0.0051923506,-0.0097738365,-0.0030543238,0.32793963,-0.040666614,-0.15375577,-5.4,1.48125,-33.675003
1763129384063,-0.26979074,6.0550375,7.698907,0.0051923506,-0.0097738365,-0.0030543238,0.3280954,-0.040570132,-0.1538633,-5.4,1.48125,-33.675003
1763129384065,-0.212363,6.0777693,7.63789,0.0051923506,-0.0097738365,-0.0030543238,0.3280954,-0.040570132,-0.1538633,-5.4,1.48125,-33.675003
1763129384066,-0.212363,6.0777693,7.63789,0.025503604,0.010995566,-0.0036651888,0.3280954,-0.040570132,-0.1538633,-5.4,1.48125,-33.675003
1763129384078,-0.212363,6.0777693,7.63789,0.025503604,0.010995566,-0.0036651888,0.3280954,-0.040570132,-0.1538633,-7.1625004,-0.8625,-34.631252
1763129384084,-0.212363,6.0777693,7.63789,0.025503604,0.010995566,-0.0036651888,0.32805586,-0.040233918,-0.15376018,-7.1625004,-0.8625,-34.631252
1763129384085,-0.212363,6.0777693,7.63789,-0.0074830935,0.03451386,-0.009315688,0.32805586,-0.040233918,-0.15376018,-7.1625004,-0.8625,-34.631252
1763129384087,-0.21655045,6.108278,7.459625,-0.0074830935,0.03451386,-0.009315688,0.32805586,-0.040233918,-0.15376018,-7.1625004,-0.8625,-34.631252
1763129384098,-0.21655045,6.108278,7.459625,-0.0074830935,0.03451386,-0.009315688,0.32805586,-0.040233918,-0.15376018,-8.0625,-2.3625002,-35.41875
1763129384105,-0.21655045,6.108278,7.459625,-0.03848448,0.012217295,-0.00641408,0.32805586,-0.040233918,-0.15376018,-8.0625,-2.3625002,-35.41875
1763129384106,-0.28115666,6.0664034,7.548159,-0.03848448,0.012217295,-0.00641408,0.32805586,-0.040233918,-0.15376018,-8.0625,-2.3625002,-35.41875
1763129384119,-0.28115666,6.0664034,7.548159,-0.03848448,0.012217295,-0.00641408,0.32805586,-0.040233918,-0.15376018,-4.51875,1.6875001,-34.237503
1763129384120,-0.28115666,6.0664034,7.548159,-0.03848448,0.012217295,-0.00641408,0.3279095,-0.04007384,-0.15362614,-4.51875,1.6875001,-34.237503
1763129384126,-0.19740787,6.0568323,7.7826557,-0.03848448,0.012217295,-0.00641408,0.3279095,-0.04007384,-0.15362614,-4.51875,1.6875001,-34.237503
1763129384127,-0.19740787,6.0568323,7.7826557,-0.016798781,-0.0044287695,-0.0035124724,0.3279095,-0.04007384,-0.15362614,-4.51875,1.6875001,-34.237503
1763129384137,-0.19740787,6.0568323,7.7826557,-0.016798781,-0.0044287695,-0.0035124724,0.32781488,-0.04005291,-0.15372312,-4.51875,1.6875001,-34.237503
1763129384138,-0.19740787,6.0568323,7.7826557,-0.016798781,-0.0044287695,-0.0035124724,0.32781488,-0.04005291,-0.15372312,-7.6312504,-1.7812501,-35.737503
1763129384147,-0.19740787,6.0568323,7.7826557,0.027030766,0.015882485,-0.017867794,0.32781488,-0.04005291,-0.15372312,-7.6312504,-1.7812501,-35.737503
1763129384148,-0.24047868,6.0346985,7.68455,0.027030766,0.015882485,-0.017867794,0.32781488,-0.04005291,-0.15372312,-7.6312504,-1.7812501,-35.737503
1763129384157,-0.24047868,6.0346985,7.68455,0.027030766,0.015882485,-0.017867794,0.32790917,-0.039941855,-0.1537691,-7.6312504,-1.7812501,-35.737503
1763129384158,-0.24047868,6.0346985,7.68455,0.027030766,0.015882485,-0.017867794,0.32790917,-0.039941855,-0.1537691,-6.9187503,-0.65625,-35.98125
1763129384168,-0.24047868,6.0346985,7.68455,0.030237807,0.014202606,-0.021380268,0.32790917,-0.039941855,-0.1537691,-6.9187503,-0.65625,-35.98125
1763129384173,-0.29012975,6.075975,7.475178,0.030237807,0.014202606,-0.021380268,0.32790917,-0.039941855,-0.1537691,-6.9187503,-0.65625,-35.98125
1763129384178,-0.29012975,6.075975,7.475178,0.030237807,0.014202606,-0.021380268,0.32810783,-0.039801456,-0.15392472,-6.9187503,-0.65625,-35.98125
1763129384179,-0.29012975,6.075975,7.475178,0.030237807,0.014202606,-0.021380268,0.32810783,-0.039801456,-0.15392472,-7.1625004,-0.71250004,-36.037502
1763129384189,-0.29012975,6.075975,7.475178,-0.0027488915,0.010079269,-0.0140498895,0.32810783,-0.039801456,-0.15392472,-7.1625004,-0.71250004,-36.037502
1763129384190,-0.3481557,6.0107703,7.499106,-0.0027488915,0.010079269,-0.0140498895,0.32810783,-0.039801456,-0.15392472,-7.1625004,-0.71250004,-36.037502
1763129384198,-0.3481557,6.0107703,7.499106,-0.0027488915,0.010079269,-0.0140498895,0.32810783,-0.039801456,-0.15392472,-7.1625004,-0.71250004,-36.037502
1763129384210,-0.3481557,6.0107703,7.499106,-0.020616686,0.0048869182,0.0061086477,0.32810783,-0.039801456,-0.15392472,-7.1625004,-0.71250004,-36.037502
1763129384212,-0.23748764,6.0837517,7.640881,-0.020616686,0.0048869182,0.0061086477,0.32810783,-0.039801456,-0.15392472,-7.1625004,-0.71250004,-36.037502
1763129384217,-0.23748764,6.0837517,7.640881,-0.020616686,0.0048869182,0.0061086477,0.32825425,-0.039618008,-0.15400243,-7.1625004,-0.71250004,-36.037502
1763129384218,-0.23748764,6.0837517,7.640881,-0.020616686,0.0048869182,0.0061086477,0.32825425,-0.039618008,-0.15400243,-7.1250005,-0.375,-34.7625
1763129384231,-0.23748764,6.0837517,7.640881,0.00641408,0.0,-0.012217295,0.32825425,-0.039618008,-0.15400243,-7.1250005,-0.375,-34.7625
1763129384232,-0.21355942,6.0711894,7.7180495,0.00641408,0.0,-0.012217295,0.32825425,-0.039618008,-0.15400243,-7.1250005,-0.375,-34.7625
1763129384239,-0.21355942,6.0711894,7.7180495,0.00641408,0.0,-0.012217295,0.32811427,-0.03947015,-0.15410265,-7.1250005,-0.375,-34.7625
1763129384240,-0.21355942,6.0711894,7.7180495,0.00641408,0.0,-0.012217295,0.32811427,-0.03947015,-0.15410265,-7.0125003,-1.8000001,-34.95
1763129384252,-0.21355942,6.0711894,7.7180495,0.035582874,-0.0061086477,-0.019089524,0.32811427,-0.03947015,-0.15410265,-7.0125003,-1.8000001,-34.95
1763129384254,-0.3080759,6.0430737,7.615158,0.035582874,-0.0061086477,-0.019089524,0.32811427,-0.03947015,-0.15410265,-7.0125003,-1.8000001,-34.95
1763129384258,-0.3080759,6.0430737,7.615158,0.035582874,-0.0061086477,-0.019089524,0.3281645,-0.039460223,-0.15411578,-7.0125003,-1.8000001,-34.95
1763129384259,-0.3080759,6.0430737,7.615158,0.035582874,-0.0061086477,-0.019089524,0.3281645,-0.039460223,-0.15411578,-7.5937505,-1.44375,-34.162502
1763129384273,-0.3080759,6.0430737,7.615158,0.027947064,-9.162972E-4,-0.0067195124,0.3281645,-0.039460223,-0.15411578,-7.5937505,-1.44375,-34.162502
1763129384274,-0.3361916,6.0281186,7.5104723,0.027947064,-9.162972E-4,-0.0067195124,0.3281645,-0.039460223,-0.15411578,-7.5937505,-1.44375,-34.162502
1763129384278,-0.3361916,6.0281186,7.5104723,0.027947064,-9.162972E-4,-0.0067195124,0.3283814,-0.039559506,-0.15420106,-7.5937505,-1.44375,-34.162502
1763129384280,-0.3361916,6.0281186,7.5104723,0.027947064,-9.162972E-4,-0.0067195124,0.3283814,-0.039559506,-0.15420106,-6.7125,-1.25625,-35.756252
1763129384295,-0.3361916,6.0281186,7.5104723,-0.020922119,0.021991132,-0.0018325944,0.3283814,-0.039559506,-0.15420106,-6.7125,-1.25625,-35.756252
1763129384296,-0.26919255,6.0358953,7.435098,-0.020922119,0.021991132,-0.0018325944,0.3283814,-0.039559506,-0.15420106,-6.7125,-1.25625,-35.756252
1763129384298,-0.26919255,6.0358953,7.435098,-0.020922119,0.021991132,-0.0018325944,0.3286092,-0.039541442,-0.15434244,-6.7125,-1.25625,-35.756252
1763129384299,-0.26919255,6.0358953,7.435098,-0.020922119,0.021991132,-0.0018325944,0.3286092,-0.039541442,-0.15434244,-6.01875,0.0375,-35.456253
1763129384315,-0.26919255,6.0358953,7.435098,-0.051007207,0.017867794,-0.0044287695,0.3286092,-0.039541442,-0.15434244,-6.01875,0.0375,-35.456253
1763129384316,-0.25064817,6.053841,7.6031938,-0.051007207,0.017867794,-0.0044287695,0.3286092,-0.039541442,-0.15434244,-6.01875,0.0375,-35.456253
1763129384317,-0.25064817,6.053841,7.6031938,-0.051007207,0.017867794,-0.0044287695,0.32849294,-0.03922319,-0.15441984,-6.01875,0.0375,-35.456253
1763129384319,-0.25064817,6.053841,7.6031938,-0.051007207,0.017867794,-0.0044287695,0.32816568,-0.038966537,-0.15436208,-6.01875,0.0375,-35.456253
1763129384321,-0.25064817,6.053841,7.6031938,-0.051007207,0.017867794,-0.0044287695,0.32816568,-0.038966537,-0.15436208,-7.2562504,-0.24375,-35.4375
1763129384338,-0.25064817,6.053841,7.6031938,-0.051007207,0.017867794,-0.0044287695,0.32799828,-0.038920823,-0.15431772,-7.2562504,-0.24375,-35.4375
1763129384339,-0.25064817,6.053841,7.6031938,-0.051007207,0.017867794,-0.0044287695,0.32799828,-0.038920823,-0.15431772,-6.4687505,0.41250002,-35.23125
1763129384340,-0.25064817,6.053841,7.6031938,-0.016798781,0.0012217296,-0.0061086477,0.32799828,-0.038920823,-0.15431772,-6.4687505,0.41250002,-35.23125
1763129384341,-0.34636107,5.9964137,7.7036924,-0.016798781,0.0012217296,-0.0061086477,0.32799828,-0.038920823,-0.15431772,-6.4687505,0.41250002,-35.23125
1763129384358,-0.34636107,5.9964137,7.7036924,0.03161225,-0.012675445,0.0065667965,0.32799828,-0.038920823,-0.15431772,-6.4687505,0.41250002,-35.23125
1763129384359,-0.34636107,5.9964137,7.7036924,0.03161225,-0.012675445,0.0065667965,0.32799828,-0.038920823,-0.15431772,-6.39375,0.75,-35.1375
1763129384361,-0.34157544,6.033502,7.706085,0.03161225,-0.012675445,0.0065667965,0.32799828,-0.038920823,-0.15431772,-6.39375,0.75,-35.1375
1763129384378,-0.34157544,6.033502,7.706085,0.03161225,-0.012675445,0.0065667965,0.32799828,-0.038920823,-0.15431772,-6.99375,-1.95,-34.29375
1763129384379,-0.34157544,6.033502,7.706085,0.03161225,-0.012675445,0.0065667965,0.32810673,-0.039044242,-0.1545186,-6.99375,-1.95,-34.29375
1763129384381,-0.34157544,6.033502,7.706085,0.03161225,-0.012675445,0.0065667965,0.3283243,-0.03907595,-0.15455727,-6.99375,-1.95,-34.29375
1763129384382,-0.34157544,6.033502,7.706085,0.03695732,-7.6358096E-4,0.012370012,0.3283243,-0.03907595,-0.15455727,-6.99375,-1.95,-34.29375
1763129384383,-0.2632105,6.0843496,7.5882387,0.03695732,-7.6358096E-4,0.012370012,0.3283243,-0.03907595,-0.15455727,-6.99375,-1.95,-34.29375
1763129384397,-0.2632105,6.0843496,7.5882387,0.03695732,-7.6358096E-4,0.012370012,0.3283243,-0.03907595,-0.15455727,-7.74375,-1.0125,-36.581253
1763129384399,-0.2632105,6.0843496,7.5882387,-1.527162E-4,0.021074835,0.005497783,0.3283243,-0.03907595,-0.15455727,-7.74375,-1.0125,-36.581253
1763129384400,-0.2632105,6.0843496,7.5882387,-1.527162E-4,0.021074835,0.005497783,0.3283885,-0.03891871,-0.15439785,-7.74375,-1.0125,-36.581253
1763129384404,-0.23330021,6.1190457,7.457232,-1.527162E-4,0.021074835,0.005497783,0.3283885,-0.03891871,-0.15439785,-7.74375,-1.0125,-36.581253
1763129384418,-0.23330021,6.1190457,7.457232,-1.527162E-4,0.021074835,0.005497783,0.3283885,-0.03891871,-0.15439785,-7.5937505,-1.44375,-34.162502
1763129384422,-0.23330021,6.1190457,7.457232,-0.020922119,0.0073303776,-0.0019853106,0.3283885,-0.03891871,-0.15439785,-7.5937505,-1.44375,-34.162502
1763129384423,-0.23330021,6.1190457,7.457232,-0.020922119,0.0073303776,-0.0019853106,0.32840654,-0.038879354,-0.15425788,-7.5937505,-1.44375,-34.162502
1763129384424,-0.25064817,6.0861444,7.569096,-0.020922119,0.0073303776,-0.0019853106,0.32840654,-0.038879354,-0.15425788,-7.5937505,-1.44375,-34.162502
1763129384438,-0.25064817,6.0861444,7.569096,-0.020922119,0.0073303776,-0.0019853106,0.32840654,-0.038879354,-0.15425788,-7.9875,-1.3687501,-33.393753
1763129384441,-0.25064817,6.0861444,7.569096,-0.010079269,0.016951498,-0.006872229,0.32840654,-0.038879354,-0.15425788,-7.9875,-1.3687501,-33.393753
1763129384441,-0.25064817,6.0861444,7.569096,-0.010079269,0.016951498,-0.006872229,0.3283957,-0.038687594,-0.15410617,-7.9875,-1.3687501,-33.393753
1763129384442,-0.2853441,6.031708,7.618747,-0.010079269,0.016951498,-0.006872229,0.3283957,-0.038687594,-0.15410617,-7.9875,-1.3687501,-33.393753
1763129384459,-0.2853441,6.031708,7.618747,-0.010079269,0.016951498,-0.006872229,0.3283957,-0.038687594,-0.15410617,-6.2625003,-0.01875,-35.9625
1763129384463,-0.2853441,6.031708,7.618747,0.008246674,0.0073303776,-7.6358096E-4,0.3283957,-0.038687594,-0.15410617,-6.2625003,-0.01875,-35.9625
1763129384464,-0.2853441,6.031708,7.618747,0.008246674,0.0073303776,-7.6358096E-4,0.3284233,-0.038638815,-0.15415415,-6.2625003,-0.01875,-35.9625
1763129384465,-0.31405798,6.052047,7.580462,0.008246674,0.0073303776,-7.6358096E-4,0.3284233,-0.038638815,-0.15415415,-6.2625003,-0.01875,-35.9625
1763129384477,-0.31405798,6.052047,7.580462,0.008246674,0.0073303776,-7.6358096E-4,0.3284233,-0.038638815,-0.15415415,-8.231251,-1.29375,-36.206253
1763129384483,-0.3080759,6.026324,7.4865437,0.008246674,0.0073303776,-7.6358096E-4,0.3284233,-0.038638815,-0.15415415,-8.231251,-1.29375,-36.206253
1763129384484,-0.3080759,6.026324,7.4865437,0.020158539,-0.011453714,0.0036651888,0.3284233,-0.038638815,-0.15415415,-8.231251,-1.29375,-36.206253
1763129384486,-0.3080759,6.026324,7.4865437,0.020158539,-0.011453714,0.0036651888,0.32860214,-0.038768973,-0.15423748,-8.231251,-1.29375,-36.206253
1763129384497,-0.3080759,6.026324,7.4865437,0.020158539,-0.011453714,0.0036651888,0.32860214,-0.038768973,-0.15423748,-4.8375,0.4875,-34.0125
1763129384505,-0.3080759,6.026324,7.4865437,0.014966187,-0.02687805,0.0025961753,0.32860214,-0.038768973,-0.15423748,-4.8375,0.4875,-34.0125
1763129384506,-0.23150559,6.087341,7.623533,0.014966187,-0.02687805,0.0025961753,0.32860214,-0.038768973,-0.15423748,-4.8375,0.4875,-34.0125
1763129384507,-0.23150559,6.087341,7.623533,0.014966187,-0.02687805,0.0025961753,0.32876366,-0.039041556,-0.15436885,-4.8375,0.4875,-34.0125
1763129384518,-0.23150559,6.087341,7.623533,0.014966187,-0.02687805,0.0025961753,0.32876366,-0.039041556,-0.15436885,-6.8625,-0.31875002,-35.15625
1763129384527,-0.23150559,6.087341,7.623533,-0.002290743,0.0051923506,-0.011759147,0.32876366,-0.039041556,-0.15436885,-6.8625,-0.31875002,-35.15625
1763129384528,-0.28414768,6.0376897,7.596614,-0.002290743,0.0051923506,-0.011759147,0.32876366,-0.039041556,-0.15436885,-6.8625,-0.31875002,-35.15625
1763129384538,-0.28414768,6.0376897,7.596614,-0.002290743,0.0051923506,-0.011759147,0.32873562,-0.039012518,-0.15439312,-6.8625,-0.31875002,-35.15625
1763129384539,-0.28414768,6.0376897,7.596614,-0.002290743,0.0051923506,-0.011759147,0.32873562,-0.039012518,-0.15439312,-6.7875004,-0.93750006,-34.050003
1763129384547,-0.28414768,6.0376897,7.596614,-0.017715078,0.0059559317,-0.00763581,0.32873562,-0.039012518,-0.15439312,-6.7875004,-0.93750006,-34.050003
1763129384548,-0.36191443,6.0598235,7.612167,-0.017715078,0.0059559317,-0.00763581,0.32873562,-0.039012518,-0.15439312,-6.7875004,-0.93750006,-34.050003
1763129384557,-0.36191443,6.0598235,7.612167,-0.017715078,0.0059559317,-0.00763581,0.32853687,-0.0389071,-0.15450405,-6.7875004,-0.93750006,-34.050003
1763129384558,-0.36191443,6.0598235,7.612167,-0.017715078,0.0059559317,-0.00763581,0.32853687,-0.0389071,-0.15450405,-6.5062504,-1.03125,-34.40625
1763129384568,-0.36191443,6.0598235,7.612167,-0.017715078,-0.0029016077,0.0061086477,0.32853687,-0.0389071,-0.15450405,-6.5062504,-1.03125,-34.40625
1763129384569,-0.29012975,6.053841,7.682157,-0.017715078,-0.0029016077,0.0061086477,0.32853687,-0.0389071,-0.15450405,-6.5062504,-1.03125,-34.40625
1763129384578,-0.29012975,6.053841,7.682157,-0.017715078,-0.0029016077,0.0061086477,0.3283508,-0.03886444,-0.154699,-6.5062504,-1.03125,-34.40625
1763129384579,-0.29012975,6.053841,7.682157,-0.017715078,-0.0029016077,0.0061086477,0.3283508,-0.03886444,-0.154699,-6.58125,-0.5625,-34.3875
1763129384589,-0.29012975,6.053841,7.682157,0.011148282,0.0024434591,0.0036651888,0.3283508,-0.03886444,-0.154699,-6.58125,-0.5625,-34.3875
1763129384590,-0.22791636,6.0664034,7.7156568,0.011148282,0.0024434591,0.0036651888,0.3283508,-0.03886444,-0.154699,-6.58125,-0.5625,-34.3875
1763129384598,-0.22791636,6.0664034,7.7156568,0.011148282,0.0024434591,0.0036651888,0.3283631,-0.03886822,-0.15471415,-6.58125,-0.5625,-34.3875
1763129384599,-0.22791636,6.0664034,7.7156568,0.011148282,0.0024434591,0.0036651888,0.3283631,-0.03886822,-0.15471415,-6.7312503,0.35625002,-34.8375
1763129384610,-0.22791636,6.0664034,7.7156568,0.03924806,0.0061086477,-0.004734202,0.3283631,-0.03886822,-0.15471415,-6.7312503,0.35625002,-34.8375
1763129384611,-0.24107689,6.1160545,7.6492558,0.03924806,0.0061086477,-0.004734202,0.3283631,-0.03886822,-0.15471415,-6.7312503,0.35625002,-34.8375
1763129384619,-0.24107689,6.1160545,7.6492558,0.03924806,0.0061086477,-0.004734202,0.32862106,-0.038907167,-0.15462333,-6.7312503,0.35625002,-34.8375
1763129384620,-0.24107689,6.1160545,7.6492558,0.03924806,0.0061086477,-0.004734202,0.32862106,-0.038907167,-0.15462333,-6.8812504,-0.31875002,-34.706253
1763129384631,-0.24107689,6.1160545,7.6492558,0.027947064,0.02443459,-0.014202606,0.32862106,-0.038907167,-0.15462333,-6.8812504,-0.31875002,-34.706253
1763129384632,-0.22791636,6.088537,7.509874,0.027947064,0.02443459,-0.014202606,0.32862106,-0.038907167,-0.15462333,-6.8812504,-0.31875002,-34.706253
1763129384637,-0.22791636,6.088537,7.509874,0.027947064,0.02443459,-0.014202606,0.32892793,-0.03872189,-0.15457337,-6.8812504,-0.31875002,-34.706253
1763129384639,-0.22791636,6.088537,7.509874,0.027947064,0.02443459,-0.014202606,0.32892793,-0.03872189,-0.15457337,-7.4062505,-1.725,-34.93125
1763129384652,-0.22791636,6.088537,7.509874,9.162972E-4,0.021227552,-0.011300999,0.32892793,-0.03872189,-0.15457337,-7.4062505,-1.725,-34.93125
1763129384653,-0.35114673,6.0711894,7.4548388,9.162972E-4,0.021227552,-0.011300999,0.32892793,-0.03872189,-0.15457337,-7.4062505,-1.725,-34.93125
1763129384658,-0.35114673,6.0711894,7.4548388,9.162972E-4,0.021227552,-0.011300999,0.32906848,-0.03854044,-0.15441744,-7.4062505,-1.725,-34.93125
1763129384659,-0.35114673,6.0711894,7.4548388,9.162972E-4,0.021227552,-0.011300999,0.32906848,-0.03854044,-0.15441744,-7.51875,-0.3,-34.443752
1763129384673,-0.35114673,6.0711894,7.4548388,-0.008399391,0.00320704,0.004581486,0.32906848,-0.03854044,-0.15441744,-7.51875,-0.3,-34.443752
1763129384674,-0.32362926,6.061618,7.524829,-0.008399391,0.00320704,0.004581486,0.32906848,-0.03854044,-0.15441744,-7.51875,-0.3,-34.443752
1763129384678,-0.32362926,6.061618,7.524829,-0.008399391,0.00320704,0.004581486,0.32913783,-0.038449883,-0.15444687,-7.51875,-0.3,-34.443752
1763129384679,-0.32362926,6.061618,7.524829,-0.008399391,0.00320704,0.004581486,0.32913783,-0.038449883,-0.15444687,-5.0062504,0.75,-34.875
1763129384694,-0.32362926,6.061618,7.524829,6.108648E-4,-0.008246674,-0.004734202,0.32913783,-0.038449883,-0.15444687,-5.0062504,0.75,-34.875
1763129384695,-0.19800608,6.148358,7.64447,6.108648E-4,-0.008246674,-0.004734202,0.32913783,-0.038449883,-0.15444687,-5.0062504,0.75,-34.875
1763129384699,-0.19800608,6.148358,7.64447,6.108648E-4,-0.008246674,-0.004734202,0.32913783,-0.038449883,-0.15444687,-6.95625,-1.3125,-35.0625
1763129384700,-0.19800608,6.148358,7.64447,6.108648E-4,-0.008246674,-0.004734202,0.32918605,-0.038495738,-0.15460937,-6.95625,-1.3125,-35.0625
1763129384714,-0.19800608,6.148358,7.64447,0.017715078,0.00763581,-0.03161225,0.32918605,-0.038495738,-0.15460937,-6.95625,-1.3125,-35.0625
1763129384715,-0.26620153,6.052047,7.5756764,0.017715078,0.00763581,-0.03161225,0.32918605,-0.038495738,-0.15460937,-6.95625,-1.3125,-35.0625
1763129384717,-0.26620153,6.052047,7.5756764,0.017715078,0.00763581,-0.03161225,0.32918605,-0.038495738,-0.15460937,-6.7875004,0.675,-34.03125
1763129384718,-0.26620153,6.052047,7.5756764,0.017715078,0.00763581,-0.03161225,0.32939544,-0.03845541,-0.15466978,-6.7875004,0.675,-34.03125
1763129384736,-0.26620153,6.052047,7.5756764,0.0067195124,-1.527162E-4,-0.019089524,0.32939544,-0.03845541,-0.15466978,-6.7875004,0.675,-34.03125
1763129384737,-0.44985065,6.000003,7.4620175,0.0067195124,-1.527162E-4,-0.019089524,0.32939544,-0.03845541,-0.15466978,-6.7875004,0.675,-34.03125
1763129384739,-0.44985065,6.000003,7.4620175,0.0067195124,-1.527162E-4,-0.019089524,0.32943648,-0.038447805,-0.15484093,-6.7875004,0.675,-34.03125
1763129384741,-0.44985065,6.000003,7.4620175,0.0067195124,-1.527162E-4,-0.019089524,0.32943648,-0.038447805,-0.15484093,-5.175,0.24375,-34.95
1763129384758,-0.44985065,6.000003,7.4620175,0.0067195124,-1.527162E-4,-0.019089524,0.32943648,-0.038447805,-0.15484093,-6.95625,-1.3125,-35.362503
1763129384759,-0.44985065,6.000003,7.4620175,0.0021380268,-0.01970039,0.014660755,0.32943648,-0.038447805,-0.15484093,-6.95625,-1.3125,-35.362503
1763129384760,-0.44985065,6.000003,7.4620175,0.0021380268,-0.01970039,0.014660755,0.32947055,-0.038556807,-0.15518984,-6.95625,-1.3125,-35.362503
1763129384761,-0.4001996,5.988637,7.5978103,0.0021380268,-0.01970039,0.014660755,0.32947055,-0.038556807,-0.15518984,-6.95625,-1.3125,-35.362503
1763129384779,-0.4001996,5.988637,7.5978103,0.021685699,-0.02565632,0.018325943,0.32947055,-0.038556807,-0.15518984,-6.95625,-1.3125,-35.362503
1763129384780,-0.4001996,5.988637,7.5978103,0.021685699,-0.02565632,0.018325943,0.3295177,-0.038789794,-0.15539643,-6.95625,-1.3125,-35.362503
1763129384782,-0.4001996,5.988637,7.5978103,0.021685699,-0.02565632,0.018325943,0.3295177,-0.038789794,-0.15539643,-6.95625,-0.65625,-34.18125
1763129384783,-0.21415763,6.096912,7.6678,0.021685699,-0.02565632,0.018325943,0.3295177,-0.038789794,-0.15539643,-6.95625,-0.65625,-34.18125
1763129384798,-0.21415763,6.096912,7.6678,0.021685699,-0.02565632,0.018325943,0.3295177,-0.038789794,-0.15539643,-8.606251,-3.1125002,-33.112503
1763129384800,-0.34157544,6.047859,6.9409804,0.021685699,-0.02565632,0.018325943,0.3295177,-0.038789794,-0.15539643,-8.606251,-3.1125002,-33.112503
1763129384802,-0.34157544,6.047859,6.9409804,0.060781047,0.044287696,-0.03848448,0.3295177,-0.038789794,-0.15539643,-8.606251,-3.1125002,-33.112503
1763129384805,-0.34157544,6.047859,6.9409804,0.060781047,0.044287696,-0.03848448,0.330095,-0.03843172,-0.15546545,-8.606251,-3.1125002,-33.112503
1763129384817,-0.34157544,6.047859,6.9409804,0.060781047,0.044287696,-0.03848448,0.330095,-0.03843172,-0.15546545,-7.5750003,-1.44375,-34.912502
1763129384819,-0.34157544,6.047859,6.9409804,-0.020616686,-0.06933315,-0.032986697,0.330095,-0.03843172,-0.15546545,-7.5750003,-1.44375,-34.912502
1763129384820,-0.5724828,5.9581285,7.309475,-0.020616686,-0.06933315,-0.032986697,0.330095,-0.03843172,-0.15546545,-7.5750003,-1.44375,-34.912502
1763129384838,-0.5724828,5.9581285,7.309475,-0.020616686,-0.06933315,-0.032986697,0.330095,-0.03843172,-0.15546545,-6.4125004,0.75,-34.3875
1763129384841,-0.5724828,5.9581285,7.309475,-0.1443168,-0.052687086,0.04886918,0.330095,-0.03843172,-0.15546545,-6.4125004,0.75,-34.3875
1763129384842,-0.5724828,5.9581285,7.309475,-0.1443168,-0.052687086,0.04886918,0.33040905,-0.038902357,-0.15587915,-6.4125004,0.75,-34.3875
1763129384843,-0.31286156,6.022136,7.479964,-0.1443168,-0.052687086,0.04886918,0.33040905,-0.038902357,-0.15587915,-6.4125004,0.75,-34.3875
1763129384844,-0.31286156,6.022136,7.479964,-0.1443168,-0.052687086,0.04886918,0.3290873,-0.03906544,-0.15628089,-6.4125004,0.75,-34.3875
1763129384858,-0.31286156,6.022136,7.479964,-0.1443168,-0.052687086,0.04886918,0.3290873,-0.03906544,-0.15628089,-7.275,-0.09375,-35.325
1763129384862,-0.31286156,6.022136,7.479964,-0.14477496,-0.050243627,0.037110034,0.3290873,-0.03906544,-0.15628089,-7.275,-0.09375,-35.325
1763129384863,-0.31286156,6.022136,7.479964,-0.14477496,-0.050243627,0.037110034,0.32767305,-0.03942183,-0.15621492,-7.275,-0.09375,-35.325
1763129384864,-0.16570297,6.122635,8.022536,-0.14477496,-0.050243627,0.037110034,0.32767305,-0.03942183,-0.15621492,-7.275,-0.09375,-35.325
1763129384878,-0.16570297,6.122635,8.022536,-0.14477496,-0.050243627,0.037110034,0.32767305,-0.03942183,-0.15621492,-7.2187505,-2.15625,-33.862503
1763129384882,-0.16570297,6.122635,8.022536,-0.07834341,0.019394957,0.024587307,0.32767305,-0.03942183,-0.15621492,-7.2187505,-2.15625,-33.862503
1763129384883,-0.16570297,6.122635,8.022536,-0.07834341,0.019394957,0.024587307,0.32659996,-0.039310247,-0.15579209,-7.2187505,-2.15625,-33.862503
1763129384884,-0.17527425,6.096912,8.194819,-0.07834341,0.019394957,0.024587307,0.32659996,-0.039310247,-0.15579209,-7.2187505,-2.15625,-33.862503
1763129384897,-0.17527425,6.096912,8.194819,-0.07834341,0.019394957,0.024587307,0.32659996,-0.039310247,-0.15579209,-6.7875004,0.82500005,-35.4375
1763129384904,-0.17527425,6.096912,8.194819,-0.07834341,0.019394957,0.024587307,0.32609057,-0.039670452,-0.15548931,-6.7875004,0.82500005,-35.4375
1763129384905,-0.24765715,5.7966127,7.8083787,-0.07834341,0.019394957,0.024587307,0.32609057,-0.039670452,-0.15548931,-6.7875004,0.82500005,-35.4375
1763129384906,-0.24765715,5.7966127,7.8083787,0.0051923506,-0.014355322,0.033139415,0.32609057,-0.039670452,-0.15548931,-6.7875004,0.82500005,-35.4375
1763129384917,-0.24765715,5.7966127,7.8083787,0.0051923506,-0.014355322,0.033139415,0.32609057,-0.039670452,-0.15548931,-4.9500003,1.25625,-34.55625
1763129384925,-0.35294133,6.1621165,7.483553,0.0051923506,-0.014355322,0.033139415,0.32609057,-0.039670452,-0.15548931,-4.9500003,1.25625,-34.55625
1763129384926,-0.35294133,6.1621165,7.483553,0.0051923506,-0.014355322,0.033139415,0.32657626,-0.03982944,-0.15557465,-4.9500003,1.25625,-34.55625
1763129384926,-0.35294133,6.1621165,7.483553,0.10231985,0.0029016077,0.0042760535,0.32657626,-0.03982944,-0.15557465,-4.9500003,1.25625,-34.55625
1763129384945,-0.35294133,6.1621165,7.483553,0.10231985,0.0029016077,0.0042760535,0.32657626,-0.03982944,-0.15557465,-6.0,1.3312501,-34.575
1763129384946,-0.35294133,6.1621165,7.483553,0.029626941,-0.055130545,0.022601997,0.32657626,-0.03982944,-0.15557465,-6.0,1.3312501,-34.575
1763129384947,-0.1788635,6.157929,7.6199436,0.029626941,-0.055130545,0.022601997,0.32657626,-0.03982944,-0.15557465,-6.0,1.3312501,-34.575
