timestamp,accX,accY,accZ,gyroX,gyroY,gyroZ,rotX,rotY,rotZ,magX,magY,magZ
1763129299717,-1.6157535,4.2915273,8.046464,0.33689192,0.21273366,0.54916745,0.19659291,-0.12846501,-0.8121817,-1.2,-18.6,-26.75625
1763129299718,-1.6157535,4.2915273,8.046464,0.22052218,0.083383046,0.42699447,0.19659291,-0.12846501,-0.8121817,-1.2,-18.6,-26.75625
1763129299718,-1.6157535,4.2915273,8.046464,0.22052218,0.083383046,0.42699447,0.19804145,-0.13079873,-0.809158,-1.2,-18.6,-26.75625
1763129299719,-1.3100704,4.674379,7.6666036,0.22052218,0.083383046,0.42699447,0.19804145,-0.13079873,-0.809158,-1.2,-18.6,-26.75625
1763129299738,-1.3100704,4.674379,7.6666036,0.22052218,0.083383046,0.42699447,0.19804145,-0.13079873,-0.809158,-5.8125,-17.38125,-22.837502
1763129299740,-1.3100704,4.674379,7.6666036,0.08720095,-0.057574004,0.2527453,0.19804145,-0.13079873,-0.809158,-5.8125,-17.38125,-22.837502
1763129299741,-1.3100704,4.674379,7.6666036,0.08720095,-0.057574004,0.2527453,0.1978223,-0.13252795,-0.8074528,-5.8125,-17.38125,-22.837502
1763129299741,-1.0127622,4.8705907,7.8017983,0.08720095,-0.057574004,0.2527453,0.1978223,-0.13252795,-0.8074528,-5.8125,-17.38125,-22.837502
1763129299758,-1.0127622,4.8705907,7.8017983,0.08720095,-0.057574004,0.2527453,0.1978223,-0.13252795,-0.8074528,1.06875,-17.456251,-29.41875
1763129299760,-0.83389866,4.837091,8.105088,0.08720095,-0.057574004,0.2527453,0.1978223,-0.13252795,-0.8074528,1.06875,-17.456251,-29.41875
1763129299760,-0.83389866,4.837091,8.105088,-0.013591741,-0.06444623,0.08735366,0.1978223,-0.13252795,-0.8074528,1.06875,-17.456251,-29.41875
1763129299761,-0.83389866,4.837091,8.105088,-0.013591741,-0.06444623,0.08735366,0.19717097,-0.13314934,-0.8067737,1.06875,-17.456251,-29.41875
1763129299779,-0.83389866,4.837091,8.105088,-0.013591741,-0.06444623,0.08735366,0.19717097,-0.13314934,-0.8067737,-1.5375,-18.1875,-26.212502
1763129299782,-0.83389866,4.837091,8.105088,-0.07589995,-0.12370012,-0.013897174,0.19717097,-0.13314934,-0.8067737,-1.5375,-18.1875,-26.212502
1763129299783,-0.83389866,4.837091,8.105088,-0.07589995,-0.12370012,-0.013897174,0.1957232,-0.13339931,-0.8069621,-1.5375,-18.1875,-26.212502
1763129299784,-0.8344969,4.79402,8.223534,-0.07589995,-0.12370012,-0.013897174,0.1957232,-0.13339931,-0.8069621,-1.5375,-18.1875,-26.212502
1763129299798,-0.8344969,4.79402,8.223534,-0.07589995,-0.12370012,-0.013897174,0.1957232,-0.13339931,-0.8069621,0.112500004,-18.6375,-28.95
1763129299802,-0.8344969,4.79402,8.223534,-0.08261946,-0.17577635,-0.08078687,0.1957232,-0.13339931,-0.8069621,0.112500004,-18.6375,-28.95
1763129299803,-0.8344969,4.79402,8.223534,-0.08261946,-0.17577635,-0.08078687,0.19387078,-0.13374789,-0.8076896,0.112500004,-18.6375,-28.95
1763129299803,-0.8392825,4.814359,8.599805,-0.08261946,-0.17577635,-0.08078687,0.19387078,-0.13374789,-0.8076896,0.112500004,-18.6375,-28.95
1763129299818,-0.8392825,4.814359,8.599805,-0.08261946,-0.17577635,-0.08078687,0.19387078,-0.13374789,-0.8076896,1.6125001,-16.987501,-27.2625
1763129299824,-0.8392825,4.814359,8.599805,-0.08261946,-0.17577635,-0.08078687,0.19232929,-0.1341226,-0.808877,1.6125001,-16.987501,-27.2625
1763129299825,-0.8392825,4.814359,8.599805,-0.05329795,-0.16875139,-0.16554436,0.19232929,-0.1341226,-0.808877,1.6125001,-16.987501,-27.2625
1763129299825,-1.1042876,4.6342993,8.76132,-0.05329795,-0.16875139,-0.16554436,0.19232929,-0.1341226,-0.808877,1.6125001,-16.987501,-27.2625
1763129299837,-1.1042876,4.6342993,8.76132,-0.05329795,-0.16875139,-0.16554436,0.19232929,-0.1341226,-0.808877,-0.63750005,-18.0,-28.575
1763129299844,-1.1042876,4.6342993,8.76132,-0.05329795,-0.16875139,-0.16554436,0.19096772,-0.13452725,-0.8103255,-0.63750005,-18.0,-28.575
1763129299845,-1.4470595,4.362714,8.785249,-0.05329795,-0.16875139,-0.16554436,0.19096772,-0.13452725,-0.8103255,-0.63750005,-18.0,-28.575
1763129299846,-1.4470595,4.362714,8.785249,-0.03161225,-0.171653,-0.21151192,0.19096772,-0.13452725,-0.8103255,-0.63750005,-18.0,-28.575
1763129299859,-1.4470595,4.362714,8.785249,-0.03161225,-0.171653,-0.21151192,0.19096772,-0.13452725,-0.8103255,-0.54375005,-19.275002,-29.718752
1763129299866,-1.4470595,4.362714,8.785249,-0.024281874,-0.16111559,-0.22403465,0.19096772,-0.13452725,-0.8103255,-0.54375005,-19.275002,-29.718752
1763129299867,-1.6241283,4.188636,8.944371,-0.024281874,-0.16111559,-0.22403465,0.19096772,-0.13452725,-0.8103255,-0.54375005,-19.275002,-29.718752
1763129299878,-1.6241283,4.188636,8.944371,-0.024281874,-0.16111559,-0.22403465,0.1897724,-0.13483465,-0.81190425,-0.54375005,-19.275002,-29.718752
1763129299878,-1.6241283,4.188636,8.944371,-0.024281874,-0.16111559,-0.22403465,0.1897724,-0.13483465,-0.81190425,-1.3125,-17.831251,-28.368752
1763129299886,-1.6241283,4.188636,8.944371,-0.04016436,-0.11866048,-0.2197586,0.1897724,-0.13483465,-0.81190425,-1.3125,-17.831251,-28.368752
1763129299887,-1.9130617,3.9637108,8.870791,-0.04016436,-0.11866048,-0.2197586,0.1897724,-0.13483465,-0.81190425,-1.3125,-17.831251,-28.368752
1763129299897,-1.9130617,3.9637108,8.870791,-0.04016436,-0.11866048,-0.2197586,0.18883683,-0.13472241,-0.8134448,-1.3125,-17.831251,-28.368752
1763129299899,-1.9130617,3.9637108,8.870791,-0.04016436,-0.11866048,-0.2197586,0.18883683,-0.13472241,-0.8134448,-3.1875002,-19.85625,-25.500002
1763129299908,-1.9130617,3.9637108,8.870791,-0.06918044,-0.09560034,-0.1621846,0.18883683,-0.13472241,-0.8134448,-3.1875002,-19.85625,-25.500002
1763129299909,-2.085345,3.8057845,8.86122,-0.06918044,-0.09560034,-0.1621846,0.18883683,-0.13472241,-0.8134448,-3.1875002,-19.85625,-25.500002
1763129299917,-2.085345,3.8057845,8.86122,-0.06918044,-0.09560034,-0.1621846,0.18789113,-0.13427491,-0.81467885,-3.1875002,-19.85625,-25.500002
1763129299918,-2.085345,3.8057845,8.86122,-0.06918044,-0.09560034,-0.1621846,0.18789113,-0.13427491,-0.81467885,-0.91875005,-18.54375,-29.268751
1763129299928,-2.085345,3.8057845,8.86122,-0.066126116,-0.06994402,-0.09300416,0.18789113,-0.13427491,-0.81467885,-0.91875005,-18.54375,-29.268751
1763129299928,-2.082952,3.7441692,8.909675,-0.066126116,-0.06994402,-0.09300416,0.18789113,-0.13427491,-0.81467885,-0.91875005,-18.54375,-29.268751
1763129299939,-2.082952,3.7441692,8.909675,-0.066126116,-0.06994402,-0.09300416,0.18709958,-0.13380341,-0.81549937,-0.91875005,-18.54375,-29.268751
1763129299940,-2.082952,3.7441692,8.909675,-0.066126116,-0.06994402,-0.09300416,0.18709958,-0.13380341,-0.81549937,-0.63750005,-18.150002,-27.16875
1763129299950,-2.082952,3.7441692,8.909675,-0.043065965,-0.022296565,-0.035888307,0.18709958,-0.13380341,-0.81549937,-0.63750005,-18.150002,-27.16875
1763129299950,-1.9507487,3.8303108,8.781659,-0.043065965,-0.022296565,-0.035888307,0.18709958,-0.13380341,-0.81549937,-0.63750005,-18.150002,-27.16875
1763129299958,-1.9507487,3.8303108,8.781659,-0.043065965,-0.022296565,-0.035888307,0.18709958,-0.13380341,-0.81549937,-0.4875,-18.91875,-28.125002
1763129299958,-1.9507487,3.8303108,8.781659,-0.043065965,-0.022296565,-0.035888307,0.18674505,-0.13337357,-0.815908,-0.4875,-18.91875,-28.125002
1763129299972,-1.8915263,3.8847475,8.649456,-0.043065965,-0.022296565,-0.035888307,0.18674505,-0.13337357,-0.815908,-0.4875,-18.91875,-28.125002
1763129299972,-1.8915263,3.8847475,8.649456,-0.03375028,-0.012522728,0.0030543238,0.18674505,-0.13337357,-0.815908,-0.4875,-18.91875,-28.125002
1763129299977,-1.8915263,3.8847475,8.649456,-0.03375028,-0.012522728,0.0030543238,0.18647866,-0.13307503,-0.81601506,-0.4875,-18.91875,-28.125002
1763129299978,-1.8915263,3.8847475,8.649456,-0.03375028,-0.012522728,0.0030543238,0.18647866,-0.13307503,-0.81601506,-1.9125,-18.13125,-28.0125
1763129299992,-1.8915263,3.8847475,8.649456,-0.037415467,0.01725693,0.019853106,0.18647866,-0.13307503,-0.81601506,-1.9125,-18.13125,-28.0125
1763129299993,-1.6815561,3.9894335,8.514859,-0.037415467,0.01725693,0.019853106,0.18647866,-0.13307503,-0.81601506,-1.9125,-18.13125,-28.0125
1763129299999,-1.6815561,3.9894335,8.514859,-0.037415467,0.01725693,0.019853106,0.18644112,-0.13262643,-0.81592476,-1.9125,-18.13125,-28.0125
1763129300000,-1.6815561,3.9894335,8.514859,-0.037415467,0.01725693,0.019853106,0.18644112,-0.13262643,-0.81592476,-7.51875,-23.23125,-22.85625
1763129300012,-1.6815561,3.9894335,8.514859,-0.07803798,-0.0013744457,0.024740024,0.18644112,-0.13262643,-0.81592476,-7.51875,-23.23125,-22.85625
1763129300013,-1.599602,4.078566,8.376076,-0.07803798,-0.0013744457,0.024740024,0.18644112,-0.13262643,-0.81592476,-7.51875,-23.23125,-22.85625
1763129300018,-1.599602,4.078566,8.376076,-0.07803798,-0.0013744457,0.024740024,0.18600631,-0.13199075,-0.81584656,-7.51875,-23.23125,-22.85625
1763129300019,-1.599602,4.078566,8.376076,-0.07803798,-0.0013744457,0.024740024,0.18600631,-0.13199075,-0.81584656,-5.9625,-19.875,-27.675001
1763129300033,-1.599602,4.078566,8.376076,-0.1065959,-0.056352276,0.023976443,0.18600631,-0.13199075,-0.81584656,-5.9625,-19.875,-27.675001
1763129300034,-1.4901303,4.145565,8.545368,-0.1065959,-0.056352276,0.023976443,0.18600631,-0.13199075,-0.81584656,-5.9625,-19.875,-27.675001
1763129300039,-1.4901303,4.145565,8.545368,-0.1065959,-0.056352276,0.023976443,0.18496922,-0.13143395,-0.81584555,-5.9625,-19.875,-27.675001
1763129300040,-1.4901303,4.145565,8.545368,-0.1065959,-0.056352276,0.023976443,0.18496922,-0.13143395,-0.81584555,-0.4875,-17.475,-27.000002
1763129300055,-1.3800604,4.2053857,8.75474,-0.1065959,-0.056352276,0.023976443,0.18496922,-0.13143395,-0.81584555,-0.4875,-17.475,-27.000002
1763129300056,-1.3800604,4.2053857,8.75474,-0.087506376,-0.07345649,0.011759147,0.18496922,-0.13143395,-0.81584555,-0.4875,-17.475,-27.000002
1763129300057,-1.3800604,4.2053857,8.75474,-0.087506376,-0.07345649,0.011759147,0.18387969,-0.1311381,-0.8159355,-0.4875,-17.475,-27.000002
1763129300058,-1.3800604,4.2053857,8.75474,-0.087506376,-0.07345649,0.011759147,0.18387969,-0.1311381,-0.8159355,-2.04375,-19.59375,-27.50625
1763129300075,-1.3800604,4.2053857,8.75474,-0.06902772,-0.042455103,-0.028557928,0.18387969,-0.1311381,-0.8159355,-2.04375,-19.59375,-27.50625
1763129300076,-1.2873386,4.269992,8.760722,-0.06902772,-0.042455103,-0.028557928,0.18387969,-0.1311381,-0.8159355,-2.04375,-19.59375,-27.50625
1763129300077,-1.2873386,4.269992,8.760722,-0.06902772,-0.042455103,-0.028557928,0.18317607,-0.13077793,-0.81619686,-2.04375,-19.59375,-27.50625
1763129300078,-1.2873386,4.269992,8.760722,-0.06902772,-0.042455103,-0.028557928,0.18317607,-0.13077793,-0.81619686,-3.45,-19.612501,-28.06875
1763129300098,-1.2873386,4.269992,8.760722,-0.06902772,-0.042455103,-0.028557928,0.18223426,-0.13044864,-0.8167316,-3.45,-19.612501,-28.06875
1763129300099,-1.2873386,4.269992,8.760722,-0.0772744,-0.07101303,-0.0697913,0.18223426,-0.13044864,-0.8167316,-3.45,-19.612501,-28.06875
1763129300100,-1.3387842,4.273581,8.762517,-0.0772744,-0.07101303,-0.0697913,0.18223426,-0.13044864,-0.8167316,-3.45,-19.612501,-28.06875
1763129300101,-1.3387842,4.273581,8.762517,-0.0772744,-0.07101303,-0.0697913,0.18223426,-0.13044864,-0.8167316,-3.075,-20.475,-26.812502
1763129300118,-1.3387842,4.273581,8.762517,-0.0772744,-0.07101303,-0.0697913,0.18119945,-0.13001293,-0.817471,-3.075,-20.475,-26.812502
1763129300119,-1.3387842,4.273581,8.762517,-0.088269964,-0.082466744,-0.10399973,0.18119945,-0.13001293,-0.817471,-3.075,-20.475,-26.812502
1763129300121,-1.4721842,4.156931,8.900104,-0.088269964,-0.082466744,-0.10399973,0.18119945,-0.13001293,-0.817471,-3.075,-20.475,-26.812502
1763129300123,-1.4721842,4.156931,8.900104,-0.088269964,-0.082466744,-0.10399973,0.18119945,-0.13001293,-0.817471,-0.28125,-17.90625,-27.431252
1763129300139,-1.4721842,4.156931,8.900104,-0.09957096,-0.05589413,-0.09789108,0.18119945,-0.13001293,-0.817471,-0.28125,-17.90625,-27.431252
1763129300140,-1.4721842,4.156931,8.900104,-0.09957096,-0.05589413,-0.09789108,0.18031651,-0.12931198,-0.8181903,-0.28125,-17.90625,-27.431252
1763129300141,-1.4721842,4.156931,8.900104,-0.09957096,-0.05589413,-0.09789108,0.18031651,-0.12931198,-0.8181903,-0.90000004,-18.056252,-27.581251
1763129300142,-1.6211374,3.9080775,8.906086,-0.09957096,-0.05589413,-0.09789108,0.18031651,-0.12931198,-0.8181903,-0.90000004,-18.056252,-27.581251
1763129300157,-1.6211374,3.9080775,8.906086,-0.09957096,-0.05589413,-0.09789108,0.18031651,-0.12931198,-0.8181903,-1.21875,-18.6,-26.00625
1763129300160,-1.6211374,3.9080775,8.906086,-0.09957096,-0.05589413,-0.09789108,0.17939594,-0.12847994,-0.8187807,-1.21875,-18.6,-26.00625
1763129300162,-1.6211374,3.9080775,8.906086,-0.11102467,-0.045814857,-0.062002774,0.17939594,-0.12847994,-0.8187807,-1.21875,-18.6,-26.00625
1763129300165,-1.564906,3.9254255,8.869596,-0.11102467,-0.045814857,-0.062002774,0.17939594,-0.12847994,-0.8187807,-1.21875,-18.6,-26.00625
1763129300177,-1.564906,3.9254255,8.869596,-0.11102467,-0.045814857,-0.062002774,0.17939594,-0.12847994,-0.8187807,-1.6500001,-17.268751,-28.462502
1763129300181,-1.564906,3.9254255,8.869596,-0.11255184,-0.026572619,-0.069485866,0.17939594,-0.12847994,-0.8187807,-1.6500001,-17.268751,-28.462502
1763129300181,-1.564906,3.9254255,8.869596,-0.11255184,-0.026572619,-0.069485866,0.1786439,-0.12752716,-0.8193579,-1.6500001,-17.268751,-28.462502
1763129300183,-1.5302101,3.932604,8.837293,-0.11255184,-0.026572619,-0.069485866,0.1786439,-0.12752716,-0.8193579,-1.6500001,-17.268751,-28.462502
1763129300198,-1.5302101,3.932604,8.837293,-0.11255184,-0.026572619,-0.069485866,0.1786439,-0.12752716,-0.8193579,-1.5375,-18.0375,-28.218752
1763129300201,-1.5302101,3.932604,8.837293,-0.11255184,-0.026572619,-0.069485866,0.17789774,-0.12678146,-0.8199058,-1.5375,-18.0375,-28.218752
1763129300202,-1.5302101,3.932604,8.837293,-0.09605849,-0.03649917,-0.06811142,0.17789774,-0.12678146,-0.8199058,-1.5375,-18.0375,-28.218752
1763129300206,-1.7210377,3.8015969,8.775079,-0.09605849,-0.03649917,-0.06811142,0.17789774,-0.12678146,-0.8199058,-1.5375,-18.0375,-28.218752
1763129300219,-1.7210377,3.8015969,8.775079,-0.09605849,-0.03649917,-0.06811142,0.17789774,-0.12678146,-0.8199058,-1.8937501,-17.475,-26.812502
1763129300223,-1.7210377,3.8015969,8.775079,-0.06459895,-0.03451386,-0.029932374,0.17789774,-0.12678146,-0.8199058,-1.8937501,-17.475,-26.812502
1763129300224,-1.7210377,3.8015969,8.775079,-0.06459895,-0.03451386,-0.029932374,0.17732456,-0.12632,-0.8202,-1.8937501,-17.475,-26.812502
1763129300226,-1.7168503,3.754937,8.8085785,-0.06459895,-0.03451386,-0.029932374,0.17732456,-0.12632,-0.8202,-1.8937501,-17.475,-26.812502
1763129300237,-1.7168503,3.754937,8.8085785,-0.06459895,-0.03451386,-0.029932374,0.17732456,-0.12632,-0.8202,-0.82500005,-16.9125,-28.462502
1763129300243,-1.7168503,3.754937,8.8085785,-0.06459895,-0.03451386,-0.029932374,0.1768636,-0.12610613,-0.8202999,-0.82500005,-16.9125,-28.462502
1763129300244,-1.6396817,3.8009987,8.7673025,-0.06459895,-0.03451386,-0.029932374,0.1768636,-0.12610613,-0.8202999,-0.82500005,-16.9125,-28.462502
1763129300245,-1.6396817,3.8009987,8.7673025,-0.04016436,-0.03084867,0.002290743,0.1768636,-0.12610613,-0.8202999,-0.82500005,-16.9125,-28.462502
1763129300257,-1.6396817,3.8009987,8.7673025,-0.04016436,-0.03084867,0.002290743,0.1768636,-0.12610613,-0.8202999,1.35,-15.431251,-26.7
1763129300265,-1.6396817,3.8009987,8.7673025,-0.04016436,-0.0050396346,-0.0010690134,0.1768636,-0.12610613,-0.8202999,1.35,-15.431251,-26.7
1763129300266,-1.6396817,3.8009987,8.7673025,-0.04016436,-0.0050396346,-0.0010690134,0.17662843,-0.12576073,-0.8203495,1.35,-15.431251,-26.7
1763129300268,-1.4386846,3.9349968,8.700303,-0.04016436,-0.0050396346,-0.0010690134,0.17662843,-0.12576073,-0.8203495,1.35,-15.431251,-26.7
1763129300278,-1.4386846,3.9349968,8.700303,-0.04016436,-0.0050396346,-0.0010690134,0.17662843,-0.12576073,-0.8203495,-0.8625,-17.550001,-27.093752
1763129300285,-1.4386846,3.9349968,8.700303,-0.07467822,-0.01970039,-0.031917684,0.17662843,-0.12576073,-0.8203495,-0.8625,-17.550001,-27.093752
1763129300286,-1.5326029,3.946961,8.55793,-0.07467822,-0.01970039,-0.031917684,0.17662843,-0.12576073,-0.8203495,-0.8625,-17.550001,-27.093752
1763129300299,-1.5326029,3.946961,8.55793,-0.07467822,-0.01970039,-0.031917684,0.17662843,-0.12576073,-0.8203495,-1.4250001,-17.212502,-27.056252
1763129300307,-1.5326029,3.946961,8.55793,-0.10415245,-0.0697913,-0.028710645,0.17662843,-0.12576073,-0.8203495,-1.4250001,-17.212502,-27.056252
1763129300308,-1.579263,3.8201413,8.715857,-0.10415245,-0.0697913,-0.028710645,0.17662843,-0.12576073,-0.8203495,-1.4250001,-17.212502,-27.056252
1763129300317,-1.579263,3.8201413,8.715857,-0.10415245,-0.0697913,-0.028710645,0.17662843,-0.12576073,-0.8203495,-0.84375006,-16.7625,-28.35
1763129300318,-1.579263,3.8201413,8.715857,-0.10415245,-0.0697913,-0.028710645,0.17623158,-0.12532748,-0.8202017,-0.84375006,-16.7625,-28.35
1763129300319,-1.579263,3.8201413,8.715857,-0.10415245,-0.0697913,-0.028710645,0.17558497,-0.12478448,-0.81972903,-0.84375006,-16.7625,-28.35
1763129300327,-1.4626129,3.8015969,8.877372,-0.10415245,-0.0697913,-0.028710645,0.17558497,-0.12478448,-0.81972903,-0.84375006,-16.7625,-28.35
1763129300328,-1.4626129,3.8015969,8.877372,-0.09911281,-0.055588696,-0.011606431,0.17558497,-0.12478448,-0.81972903,-0.84375006,-16.7625,-28.35
1763129300339,-1.4626129,3.8015969,8.877372,-0.09911281,-0.055588696,-0.011606431,0.1748533,-0.12412601,-0.8196481,-0.84375006,-16.7625,-28.35
1763129300340,-1.4626129,3.8015969,8.877372,-0.09911281,-0.055588696,-0.011606431,0.1748533,-0.12412601,-0.8196481,-1.21875,-16.837502,-27.69375
1763129300349,-1.4626129,3.8015969,8.877372,-0.06902772,-0.05146536,-0.0029016077,0.1748533,-0.12412601,-0.8196481,-1.21875,-16.837502,-27.69375
1763129300350,-1.4727824,3.839284,8.9312105,-0.06902772,-0.05146536,-0.0029016077,0.1748533,-0.12412601,-0.8196481,-1.21875,-16.837502,-27.69375
1763129300358,-1.4727824,3.839284,8.9312105,-0.06902772,-0.05146536,-0.0029016077,0.1748533,-0.12412601,-0.8196481,-0.73125005,-15.918751,-27.487501
1763129300359,-1.4727824,3.839284,8.9312105,-0.06902772,-0.05146536,-0.0029016077,0.17398167,-0.12387285,-0.81985664,-0.73125005,-15.918751,-27.487501
1763129300369,-1.4727824,3.839284,8.9312105,-0.025198173,-0.033902995,-0.012064579,0.17398167,-0.12387285,-0.81985664,-0.73125005,-15.918751,-27.487501
1763129300370,-1.4147564,3.9176488,8.990433,-0.025198173,-0.033902995,-0.012064579,0.17398167,-0.12387285,-0.81985664,-0.73125005,-15.918751,-27.487501
1763129300378,-1.4147564,3.9176488,8.990433,-0.025198173,-0.033902995,-0.012064579,0.17356084,-0.12387795,-0.81995475,-0.73125005,-15.918751,-27.487501
1763129300381,-1.4147564,3.9176488,8.990433,-0.025198173,-0.033902995,-0.012064579,0.17356084,-0.12387795,-0.81995475,-0.61875004,-16.6875,-27.243752
1763129300390,-1.4147564,3.9176488,8.990433,-0.016646065,-0.013591741,-0.033902995,0.17356084,-0.12387795,-0.81995475,-0.61875004,-16.6875,-27.243752
1763129300392,-1.4799608,3.8877387,8.861818,-0.016646065,-0.013591741,-0.033902995,0.17356084,-0.12387795,-0.81995475,-0.61875004,-16.6875,-27.243752
1763129300398,-1.4799608,3.8877387,8.861818,-0.016646065,-0.013591741,-0.033902995,0.17336163,-0.12391841,-0.82002884,-0.61875004,-16.6875,-27.243752
1763129300398,-1.4799608,3.8877387,8.861818,-0.016646065,-0.013591741,-0.033902995,0.17336163,-0.12391841,-0.82002884,-1.8375001,-16.987501,-27.825
1763129300411,-1.4799608,3.8877387,8.861818,-0.023518294,-0.03848448,-0.032833982,0.17336163,-0.12391841,-0.82002884,-1.8375001,-16.987501,-27.825
1763129300412,-1.4961123,3.7932222,8.930014,-0.023518294,-0.03848448,-0.032833982,0.17336163,-0.12391841,-0.82002884,-1.8375001,-16.987501,-27.825
1763129300417,-1.4961123,3.7932222,8.930014,-0.023518294,-0.03848448,-0.032833982,0.17310578,-0.1239253,-0.81995314,-1.8375001,-16.987501,-27.825
1763129300418,-1.4961123,3.7932222,8.930014,-0.023518294,-0.03848448,-0.032833982,0.17310578,-0.1239253,-0.81995314,-0.75,-15.76875,-28.143751
1763129300432,-1.4961123,3.7932222,8.930014,-0.016035201,-0.015577052,-0.016951498,0.17310578,-0.1239253,-0.81995314,-0.75,-15.76875,-28.143751
1763129300434,-1.561915,3.7250266,8.974281,-0.016035201,-0.015577052,-0.016951498,0.17310578,-0.1239253,-0.81995314,-0.75,-15.76875,-28.143751
1763129300438,-1.561915,3.7250266,8.974281,-0.016035201,-0.015577052,-0.016951498,0.17310578,-0.1239253,-0.81995314,-1.0875001,-17.625,-28.2
1763129300439,-1.561915,3.7250266,8.974281,-0.016035201,-0.015577052,-0.016951498,0.17290395,-0.123836786,-0.8201081,-1.0875001,-17.625,-28.2
1763129300454,-1.561915,3.7250266,8.974281,-0.003970621,0.009926553,0.0030543238,0.17290395,-0.123836786,-0.8201081,-1.0875001,-17.625,-28.2
1763129300455,-1.5170496,3.7471602,8.907282,-0.003970621,0.009926553,0.0030543238,0.17290395,-0.123836786,-0.8201081,-1.0875001,-17.625,-28.2
1763129300459,-1.5170496,3.7471602,8.907282,-0.003970621,0.009926553,0.0030543238,0.17290395,-0.123836786,-0.8201081,-1.9687501,-17.8125,-27.656252
1763129300460,-1.5170496,3.7471602,8.907282,-0.003970621,0.009926553,0.0030543238,0.1729324,-0.12363309,-0.820287,-1.9687501,-17.8125,-27.656252
1763129300474,-1.4488541,3.8847475,8.763713,-0.003970621,0.009926553,0.0030543238,0.1729324,-0.12363309,-0.820287,-1.9687501,-17.8125,-27.656252
1763129300476,-1.4488541,3.8847475,8.763713,-0.016187917,0.009926553,-0.0050396346,0.1729324,-0.12363309,-0.820287,-1.9687501,-17.8125,-27.656252
1763129300478,-1.4488541,3.8847475,8.763713,-0.016187917,0.009926553,-0.0050396346,0.17292278,-0.123384655,-0.8203951,-1.9687501,-17.8125,-27.656252
1763129300480,-1.4488541,3.8847475,8.763713,-0.016187917,0.009926553,-0.0050396346,0.17292278,-0.123384655,-0.8203951,-2.53125,-18.112501,-28.650002
1763129300495,-1.4488541,3.8847475,8.763713,-0.057574004,-0.0108428495,-0.028710645,0.17292278,-0.123384655,-0.8203951,-2.53125,-18.112501,-28.650002
1763129300496,-1.5104693,3.821936,8.730812,-0.057574004,-0.0108428495,-0.028710645,0.17292278,-0.123384655,-0.8203951,-2.53125,-18.112501,-28.650002
1763129300499,-1.5104693,3.821936,8.730812,-0.057574004,-0.0108428495,-0.028710645,0.17276698,-0.12300367,-0.8201228,-2.53125,-18.112501,-28.650002
1763129300500,-1.5104693,3.821936,8.730812,-0.057574004,-0.0108428495,-0.028710645,0.17276698,-0.12300367,-0.8201228,-1.7062501,-17.1,-26.250002
1763129300518,-1.5104693,3.821936,8.730812,-0.057574004,-0.0108428495,-0.028710645,0.17235518,-0.122389734,-0.81990325,-1.7062501,-17.1,-26.250002
1763129300519,-1.5104693,3.821936,8.730812,-0.08506292,-0.029474225,-0.021380268,0.17235518,-0.122389734,-0.81990325,-1.7062501,-17.1,-26.250002
1763129300521,-1.5475581,3.7292142,8.800801,-0.08506292,-0.029474225,-0.021380268,0.17235518,-0.122389734,-0.81990325,-1.7062501,-17.1,-26.250002
1763129300522,-1.5475581,3.7292142,8.800801,-0.08506292,-0.029474225,-0.021380268,0.17235518,-0.122389734,-0.81990325,-0.50625,-15.712501,-28.3875
1763129300540,-1.4769697,3.7728832,8.956933,-0.08506292,-0.029474225,-0.021380268,0.17235518,-0.122389734,-0.81990325,-0.50625,-15.712501,-28.3875
1763129300541,-1.4769697,3.7728832,8.956933,-0.08506292,-0.029474225,-0.021380268,0.17184326,-0.12190552,-0.81989473,-0.50625,-15.712501,-28.3875
1763129300544,-1.4769697,3.7728832,8.956933,-0.067958705,-0.037262753,-0.0058032153,0.17184326,-0.12190552,-0.81989473,-0.50625,-15.712501,-28.3875
1763129300545,-1.4769697,3.7728832,8.956933,-0.067958705,-0.037262753,-0.0058032153,0.17184326,-0.12190552,-0.81989473,-0.88125,-15.000001,-28.3875
1763129300558,-1.4344971,3.7890346,8.832506,-0.067958705,-0.037262753,-0.0058032153,0.17184326,-0.12190552,-0.81989473,-0.88125,-15.000001,-28.3875
1763129300559,-1.4344971,3.7890346,8.832506,-0.067958705,-0.037262753,-0.0058032153,0.17173672,-0.12152221,-0.81999993,-0.88125,-15.000001,-28.3875
1763129300560,-1.4344971,3.7890346,8.832506,-0.038026333,0.010079269,-0.019394957,0.17173672,-0.12152221,-0.81999993,-0.88125,-15.000001,-28.3875
1763129300562,-1.4344971,3.7890346,8.832506,-0.038026333,0.010079269,-0.019394957,0.17173672,-0.12152221,-0.81999993,-2.04375,-16.556252,-28.0125
1763129300578,-1.4344971,3.7890346,8.832506,-0.038026333,0.010079269,-0.019394957,0.17173672,-0.12152221,-0.81999993,-1.4250001,-17.212502,-27.056252
1763129300580,-1.4344971,3.7890346,8.832506,-0.043524116,-0.003970621,-0.031917684,0.17173672,-0.12152221,-0.81999993,-1.4250001,-17.212502,-27.056252
1763129300581,-1.4344971,3.7890346,8.832506,-0.043524116,-0.003970621,-0.031917684,0.17156857,-0.121210255,-0.81999075,-1.4250001,-17.212502,-27.056252
1763129300582,-1.4961123,3.7483566,8.644072,-0.043524116,-0.003970621,-0.031917684,0.17156857,-0.121210255,-0.81999075,-1.4250001,-17.212502,-27.056252
1763129300599,-1.4961123,3.7483566,8.644072,-0.043524116,-0.003970621,-0.031917684,0.17156857,-0.121210255,-0.81999075,-2.8312502,-18.0,-26.79375
1763129300600,-1.4961123,3.7483566,8.644072,-0.07391464,-0.053145237,-0.024281874,0.17156857,-0.121210255,-0.81999075,-2.8312502,-18.0,-26.79375
1763129300601,-1.4961123,3.7483566,8.644072,-0.07391464,-0.053145237,-0.024281874,0.17104138,-0.120810166,-0.81978536,-2.8312502,-18.0,-26.79375
1763129300602,-1.4979069,3.7124643,8.734999,-0.07391464,-0.053145237,-0.024281874,0.17104138,-0.120810166,-0.81978536,-2.8312502,-18.0,-26.79375
1763129300618,-1.4979069,3.7124643,8.734999,-0.07391464,-0.053145237,-0.024281874,0.17104138,-0.120810166,-0.81978536,-1.9125,-18.2625,-25.556252
1763129300622,-1.4883357,3.714857,8.883952,-0.07391464,-0.053145237,-0.024281874,0.17104138,-0.120810166,-0.81978536,-1.9125,-18.2625,-25.556252
1763129300623,-1.4883357,3.714857,8.883952,-0.08536835,-0.05894845,-0.025503604,0.17104138,-0.120810166,-0.81978536,-1.9125,-18.2625,-25.556252
1763129300624,-1.4883357,3.714857,8.883952,-0.08536835,-0.05894845,-0.025503604,0.17027725,-0.1203697,-0.8199394,-1.9125,-18.2625,-25.556252
1763129300640,-1.4883357,3.714857,8.883952,-0.08536835,-0.05894845,-0.025503604,0.17027725,-0.1203697,-0.8199394,-1.7812501,-16.5,-28.406252
1763129300642,-1.4883357,3.714857,8.883952,-0.08536835,-0.05894845,-0.025503604,0.16960722,-0.1198853,-0.82022446,-1.7812501,-16.5,-28.406252
1763129300643,-1.4883357,3.714857,8.883952,-0.07849612,-0.041691523,-0.032833982,0.16960722,-0.1198853,-0.82022446,-1.7812501,-16.5,-28.406252
1763129300644,-1.4614165,3.720241,8.909675,-0.07849612,-0.041691523,-0.032833982,0.16960722,-0.1198853,-0.82022446,-1.7812501,-16.5,-28.406252
1763129300658,-1.4614165,3.720241,8.909675,-0.07849612,-0.041691523,-0.032833982,0.16960722,-0.1198853,-0.82022446,-1.575,-16.425001,-26.081251
1763129300665,-1.4614165,3.720241,8.909675,-0.07849612,-0.041691523,-0.032833982,0.16888738,-0.119391225,-0.82060534,-1.575,-16.425001,-26.081251
1763129300667,-1.4614165,3.720241,8.909675,-0.083230324,-0.043371398,-0.047494736,0.16888738,-0.119391225,-0.82060534,-1.575,-16.425001,-26.081251
1763129300668,-1.4673985,3.7363925,8.823533,-0.083230324,-0.043371398,-0.047494736,0.16888738,-0.119391225,-0.82060534,-1.575,-16.425001,-26.081251
1763129300677,-1.4673985,3.7363925,8.823533,-0.083230324,-0.043371398,-0.047494736,0.16888738,-0.119391225,-0.82060534,-1.1625,-16.35,-28.25625
1763129300684,-1.4673985,3.7363925,8.823533,-0.083230324,-0.043371398,-0.047494736,0.16778064,-0.11910175,-0.82087857,-1.1625,-16.35,-28.25625
1763129300685,-1.4673985,3.7363925,8.823533,-0.09300416,-0.10354158,-0.060475614,0.16778064,-0.11910175,-0.82087857,-1.1625,-16.35,-28.25625
1763129300686,-1.352543,3.7770705,8.79123,-0.09300416,-0.10354158,-0.060475614,0.16778064,-0.11910175,-0.82087857,-1.1625,-16.35,-28.25625
1763129300699,-1.352543,3.7770705,8.79123,-0.09300416,-0.10354158,-0.060475614,0.16778064,-0.11910175,-0.82087857,-2.11875,-16.893751,-27.487501
1763129300707,-1.352543,3.7770705,8.79123,-0.08536835,-0.14065161,-0.09498947,0.16778064,-0.11910175,-0.82087857,-2.11875,-16.893751,-27.487501
1763129300708,-1.302892,3.7866418,8.9348,-0.08536835,-0.14065161,-0.09498947,0.16778064,-0.11910175,-0.82087857,-2.11875,-16.893751,-27.487501
1763129300718,-1.302892,3.7866418,8.9348,-0.08536835,-0.14065161,-0.09498947,0.16635685,-0.11923027,-0.82144445,-2.11875,-16.893751,-27.487501
1763129300719,-1.302892,3.7866418,8.9348,-0.08536835,-0.14065161,-0.09498947,0.16635685,-0.11923027,-0.82144445,-0.71250004,-15.281251,-27.806252
1763129300726,-1.302892,3.7866418,8.9348,-0.08093958,-0.11270455,-0.117744185,0.16635685,-0.11923027,-0.82144445,-0.71250004,-15.281251,-27.806252
1763129300727,-1.4249259,3.650251,8.979067,-0.08093958,-0.11270455,-0.117744185,0.16635685,-0.11923027,-0.82144445,-0.71250004,-15.281251,-27.806252
1763129300738,-1.4249259,3.650251,8.979067,-0.08093958,-0.11270455,-0.117744185,0.16512647,-0.11920499,-0.82206434,-0.71250004,-15.281251,-27.806252
1763129300739,-1.4249259,3.650251,8.979067,-0.08093958,-0.11270455,-0.117744185,0.16512647,-0.11920499,-0.82206434,-0.52500004,-15.562501,-28.275002
1763129300749,-1.4249259,3.650251,8.979067,-0.093615025,-0.088269964,-0.10308343,0.16512647,-0.11920499,-0.82206434,-0.52500004,-15.562501,-28.275002
1763129300750,-1.4578272,3.566502,8.9108715,-0.093615025,-0.088269964,-0.10308343,0.16512647,-0.11920499,-0.82206434,-0.52500004,-15.562501,-28.275002
1763129300757,-1.4578272,3.566502,8.9108715,-0.093615025,-0.088269964,-0.10308343,0.16401903,-0.11875133,-0.82292604,-0.52500004,-15.562501,-28.275002
1763129300758,-1.4578272,3.566502,8.9108715,-0.093615025,-0.088269964,-0.10308343,0.16401903,-0.11875133,-0.82292604,-1.0875001,-15.356251,-27.88125
1763129300768,-1.4578272,3.566502,8.9108715,-0.11255184,-0.102472566,-0.09010255,0.16401903,-0.11875133,-0.82292604,-1.0875001,-15.356251,-27.88125
1763129300769,-1.3974084,3.5880375,8.842078,-0.11255184,-0.102472566,-0.09010255,0.16401903,-0.11875133,-0.82292604,-1.0875001,-15.356251,-27.88125
1763129300778,-1.3974084,3.5880375,8.842078,-0.11255184,-0.102472566,-0.09010255,0.16271833,-0.118147396,-0.82378894,-1.0875001,-15.356251,-27.88125
1763129300779,-1.3974084,3.5880375,8.842078,-0.11255184,-0.102472566,-0.09010255,0.16271833,-0.118147396,-0.82378894,-2.0062501,-16.050001,-26.925001
1763129300790,-1.3974084,3.5880375,8.842078,-0.10338886,-0.15241076,-0.0971275,0.16271833,-0.118147396,-0.82378894,-2.0062501,-16.050001,-26.925001
1763129300791,-1.3238292,3.62393,8.918648,-0.10338886,-0.15241076,-0.0971275,0.16271833,-0.118147396,-0.82378894,-2.0062501,-16.050001,-26.925001
1763129300798,-1.3238292,3.62393,8.918648,-0.10338886,-0.15241076,-0.0971275,0.16111064,-0.11795469,-0.8245372,-2.0062501,-16.050001,-26.925001
1763129300799,-1.3238292,3.62393,8.918648,-0.10338886,-0.15241076,-0.0971275,0.16111064,-0.11795469,-0.8245372,-0.80625004,-15.6,-26.531252
1763129300810,-1.3238292,3.62393,8.918648,-0.07467822,-0.16523892,-0.12721258,0.16111064,-0.11795469,-0.8245372,-0.80625004,-15.6,-26.531252
1763129300811,-1.416551,3.5892339,9.049655,-0.07467822,-0.16523892,-0.12721258,0.16111064,-0.11795469,-0.8245372,-0.80625004,-15.6,-26.531252
1763129300818,-1.416551,3.5892339,9.049655,-0.07467822,-0.16523892,-0.12721258,0.1595088,-0.11813879,-0.8254696,-0.80625004,-15.6,-26.531252
1763129300823,-1.416551,3.5892339,9.049655,-0.07467822,-0.16523892,-0.12721258,0.1595088,-0.11813879,-0.8254696,-2.71875,-17.175001,-26.98125
1763129300831,-1.416551,3.5892339,9.049655,-0.062613636,-0.13668099,-0.14019346,0.1595088,-0.11813879,-0.8254696,-2.71875,-17.175001,-26.98125
1763129300833,-1.4195421,3.49053,8.980862,-0.062613636,-0.13668099,-0.14019346,0.1595088,-0.11813879,-0.8254696,-2.71875,-17.175001,-26.98125
1763129300837,-1.4195421,3.49053,8.980862,-0.062613636,-0.13668099,-0.14019346,0.15830888,-0.118062004,-0.8264168,-2.71875,-17.175001,-26.98125
1763129300838,-1.4195421,3.49053,8.980862,-0.062613636,-0.13668099,-0.14019346,0.15830888,-0.118062004,-0.8264168,-1.0125,-15.825001,-27.45
1763129300852,-1.4195421,3.49053,8.980862,-0.074067354,-0.15256348,-0.1291979,0.15830888,-0.118062004,-0.8264168,-1.0125,-15.825001,-27.45
1763129300853,-1.2550355,3.5557344,8.909675,-0.074067354,-0.15256348,-0.1291979,0.15830888,-0.118062004,-0.8264168,-1.0125,-15.825001,-27.45
1763129300858,-1.2550355,3.5557344,8.909675,-0.074067354,-0.15256348,-0.1291979,0.15688239,-0.11791076,-0.82741606,-1.0125,-15.825001,-27.45
1763129300859,-1.2550355,3.5557344,8.909675,-0.074067354,-0.15256348,-0.1291979,0.15688239,-0.11791076,-0.82741606,-3.4687502,-16.3875,-27.2625
1763129300873,-1.2550355,3.5557344,8.909675,-0.07880156,-0.182954,-0.15378521,0.15688239,-0.11791076,-0.82741606,-3.4687502,-16.3875,-27.2625
1763129300875,-1.1880364,3.6179478,8.984451,-0.07880156,-0.182954,-0.15378521,0.15688239,-0.11791076,-0.82741606,-3.4687502,-16.3875,-27.2625
1763129300878,-1.1880364,3.6179478,8.984451,-0.07880156,-0.182954,-0.15378521,0.15512455,-0.11810125,-0.8284761,-3.4687502,-16.3875,-27.2625
1763129300880,-1.1880364,3.6179478,8.984451,-0.07880156,-0.182954,-0.15378521,0.15512455,-0.11810125,-0.8284761,-2.68125,-16.6875,-26.343752
1763129300894,-1.1880364,3.6179478,8.984451,-0.061239194,-0.18555018,-0.17577635,0.15512455,-0.11810125,-0.8284761,-2.68125,-16.6875,-26.343752
1763129300895,-1.3226327,3.4600215,9.064013,-0.061239194,-0.18555018,-0.17577635,0.15512455,-0.11810125,-0.8284761,-2.68125,-16.6875,-26.343752
1763129300899,-1.3226327,3.4600215,9.064013,-0.061239194,-0.18555018,-0.17577635,0.15343112,-0.11854243,-0.82962316,-2.68125,-16.6875,-26.343752
1763129300900,-1.3226327,3.4600215,9.064013,-0.061239194,-0.18555018,-0.17577635,0.15343112,-0.11854243,-0.82962316,-2.34375,-15.4875,-27.31875
1763129300915,-1.3226327,3.4600215,9.064013,-0.055130545,-0.16462806,-0.16966769,0.15343112,-0.11854243,-0.82962316,-2.34375,-15.4875,-27.31875
1763129300916,-1.2364911,3.4660037,8.984451,-0.055130545,-0.16462806,-0.16966769,0.15343112,-0.11854243,-0.82962316,-2.34375,-15.4875,-27.31875
1763129300919,-1.2364911,3.4660037,8.984451,-0.055130545,-0.16462806,-0.16966769,0.15194002,-0.118648216,-0.8310577,-2.34375,-15.4875,-27.31875
1763129300920,-1.2364911,3.4660037,8.984451,-0.055130545,-0.16462806,-0.16966769,0.15194002,-0.118648216,-0.8310577,-3.2812502,-16.837502,-27.243752
1763129300936,-1.2364911,3.4660037,8.984451,-0.07040217,-0.16646065,-0.16539164,0.15194002,-0.118648216,-0.8310577,-3.2812502,-16.837502,-27.243752
1763129300938,-1.2077773,3.4151561,8.976076,-0.07040217,-0.16646065,-0.16539164,0.15194002,-0.118648216,-0.8310577,-3.2812502,-16.837502,-27.243752
1763129300939,-1.2077773,3.4151561,8.976076,-0.07040217,-0.16646065,-0.16539164,0.15031266,-0.11876167,-0.8324468,-3.2812502,-16.837502,-27.243752
1763129300940,-1.2077773,3.4151561,8.976076,-0.07040217,-0.16646065,-0.16539164,0.15031266,-0.11876167,-0.8324468,-4.78125,-17.6625,-28.218752
1763129300958,-1.2077773,3.4151561,8.976076,-0.07849612,-0.15699224,-0.14263692,0.15031266,-0.11876167,-0.8324468,-4.78125,-17.6625,-28.218752
1763129300959,-1.2077773,3.4151561,8.976076,-0.07849612,-0.15699224,-0.14263692,0.15031266,-0.11876167,-0.8324468,-3.6750002,-16.7625,-26.925001
1763129300961,-1.262214,3.3690944,9.096315,-0.07849612,-0.15699224,-0.14263692,0.15031266,-0.11876167,-0.8324468,-3.6750002,-16.7625,-26.925001
1763129300962,-1.262214,3.3690944,9.096315,-0.07849612,-0.15699224,-0.14263692,0.14868125,-0.118736364,-0.8336345,-3.6750002,-16.7625,-26.925001
1763129300979,-1.262214,3.3690944,9.096315,-0.07467822,-0.13377939,-0.12110394,0.14868125,-0.118736364,-0.8336345,-3.6750002,-16.7625,-26.925001
1763129300980,-1.262214,3.3690944,9.096315,-0.07467822,-0.13377939,-0.12110394,0.14722812,-0.11855383,-0.83486134,-3.6750002,-16.7625,-26.925001
1763129300982,-1.262214,3.3690944,9.096315,-0.07467822,-0.13377939,-0.12110394,0.14722812,-0.11855383,-0.83486134,-3.6375,-16.9125,-27.31875
1763129300984,-1.2729816,3.3756745,9.065806,-0.07467822,-0.13377939,-0.12110394,0.14722812,-0.11855383,-0.83486134,-3.6375,-16.9125,-27.31875
1763129300997,-1.2729816,3.3756745,9.065806,-0.07467822,-0.13377939,-0.12110394,0.14722812,-0.11855383,-0.83486134,-4.125,-17.04375,-28.500002
1763129300999,-1.2729816,3.3756745,9.065806,-0.06291907,-0.15897755,-0.12797616,0.14722812,-0.11855383,-0.83486134,-4.125,-17.04375,-28.500002
1763129301001,-1.2729816,3.3756745,9.065806,-0.06291907,-0.15897755,-0.12797616,0.14575098,-0.11856331,-0.8359381,-4.125,-17.04375,-28.500002
1763129301002,-1.1551352,3.4396825,9.061021,-0.06291907,-0.15897755,-0.12797616,0.14575098,-0.11856331,-0.8359381,-4.125,-17.04375,-28.500002
1763129301018,-1.1551352,3.4396825,9.061021,-0.06291907,-0.15897755,-0.12797616,0.14575098,-0.11856331,-0.8359381,-2.7,-16.66875,-24.993752
1763129301022,-1.1551352,3.4396825,9.061021,-0.049174614,-0.15622866,-0.14645483,0.14575098,-0.11856331,-0.8359381,-2.7,-16.66875,-24.993752
1763129301023,-1.1551352,3.4396825,9.061021,-0.049174614,-0.15622866,-0.14645483,0.144333,-0.11883498,-0.83699864,-2.7,-16.66875,-24.993752
1763129301025,-1.1473584,3.3463624,9.139386,-0.049174614,-0.15622866,-0.14645483,0.144333,-0.11883498,-0.83699864,-2.7,-16.66875,-24.993752
1763129301040,-1.1473584,3.3463624,9.139386,-0.049174614,-0.15622866,-0.14645483,0.144333,-0.11883498,-0.83699864,-3.45,-15.750001,-27.281252
1763129301041,-1.1473584,3.3463624,9.139386,-0.049174614,-0.15622866,-0.14645483,0.14298141,-0.11897368,-0.8382662,-3.45,-15.750001,-27.281252
1763129301043,-1.1473584,3.3463624,9.139386,-0.04291325,-0.13530655,-0.14156792,0.14298141,-0.11897368,-0.8382662,-3.45,-15.750001,-27.281252
1763129301044,-1.1856437,3.359523,9.171091,-0.04291325,-0.13530655,-0.14156792,0.14298141,-0.11897368,-0.8382662,-3.45,-15.750001,-27.281252
1763129301058,-1.1856437,3.359523,9.171091,-0.04291325,-0.13530655,-0.14156792,0.14298141,-0.11897368,-0.8382662,-4.03125,-16.050001,-28.275002
1763129301062,-1.1856437,3.359523,9.171091,-0.052381653,-0.12797616,-0.14385866,0.14298141,-0.11897368,-0.8382662,-4.03125,-16.050001,-28.275002
1763129301064,-1.1856437,3.359523,9.171091,-0.052381653,-0.12797616,-0.14385866,0.14175664,-0.118935004,-0.83942735,-4.03125,-16.050001,-28.275002
1763129301064,-1.1521441,3.399603,9.033504,-0.052381653,-0.12797616,-0.14385866,0.14175664,-0.118935004,-0.83942735,-4.03125,-16.050001,-28.275002
1763129301077,-1.1521441,3.399603,9.033504,-0.052381653,-0.12797616,-0.14385866,0.14175664,-0.118935004,-0.83942735,-6.3,-17.85,-26.962502
1763129301082,-1.1521441,3.399603,9.033504,-0.053145237,-0.18219042,-0.15485422,0.14175664,-0.118935004,-0.83942735,-6.3,-17.85,-26.962502
1763129301084,-1.1521441,3.399603,9.033504,-0.053145237,-0.18219042,-0.15485422,0.1402307,-0.11922104,-0.84038514,-6.3,-17.85,-26.962502
1763129301084,-1.1186446,3.4199417,9.086145,-0.053145237,-0.18219042,-0.15485422,0.1402307,-0.11922104,-0.84038514,-6.3,-17.85,-26.962502
1763129301097,-1.1186446,3.4199417,9.086145,-0.053145237,-0.18219042,-0.15485422,0.1402307,-0.11922104,-0.84038514,-2.9437501,-14.175,-26.79375
1763129301105,-1.0863415,3.3834512,9.144172,-0.053145237,-0.18219042,-0.15485422,0.1402307,-0.11922104,-0.84038514,-2.9437501,-14.175,-26.79375
1763129301106,-1.0863415,3.3834512,9.144172,-0.053145237,-0.18219042,-0.15485422,0.13869467,-0.11978762,-0.84138495,-2.9437501,-14.175,-26.79375
1763129301107,-1.0863415,3.3834512,9.144172,-0.032070402,-0.19440772,-0.15974113,0.13869467,-0.11978762,-0.84138495,-2.9437501,-14.175,-26.79375
1763129301117,-1.0863415,3.3834512,9.144172,-0.032070402,-0.19440772,-0.15974113,0.13869467,-0.11978762,-0.84138495,-6.1875005,-18.768751,-24.712502
1763129301125,-1.0863415,3.3834512,9.144172,-0.0129808765,-0.16111559,-0.16997312,0.13869467,-0.11978762,-0.84138495,-6.1875005,-18.768751,-24.712502
1763129301126,-1.0271192,3.399603,9.022736,-0.0129808765,-0.16111559,-0.16997312,0.13869467,-0.11978762,-0.84138495,-6.1875005,-18.768751,-24.712502
1763129301139,-1.0271192,3.399603,9.022736,-0.0129808765,-0.16111559,-0.16997312,0.13741285,-0.12037115,-0.84272283,-6.1875005,-18.768751,-24.712502
1763129301140,-1.0271192,3.399603,9.022736,-0.0129808765,-0.16111559,-0.16997312,0.13741285,-0.12037115,-0.84272283,-2.775,-15.262501,-26.1375
1763129301148,-1.0271192,3.399603,9.022736,-0.032070402,-0.18051054,-0.20219624,0.13741285,-0.12037115,-0.84272283,-2.775,-15.262501,-26.1375
1763129301150,-0.9798609,3.4025939,8.860024,-0.032070402,-0.18051054,-0.20219624,0.13741285,-0.12037115,-0.84272283,-2.775,-15.262501,-26.1375
1763129301157,-0.9798609,3.4025939,8.860024,-0.032070402,-0.18051054,-0.20219624,0.13599758,-0.1208746,-0.84393203,-2.775,-15.262501,-26.1375
1763129301158,-0.9798609,3.4025939,8.860024,-0.032070402,-0.18051054,-0.20219624,0.13599758,-0.1208746,-0.84393203,-4.0875,-15.731251,-27.618752
1763129301167,-0.9798609,3.4025939,8.860024,-0.075594515,-0.25518876,-0.24297146,0.13599758,-0.1208746,-0.84393203,-4.0875,-15.731251,-27.618752
1763129301168,-0.9607183,3.4660037,8.945567,-0.075594515,-0.25518876,-0.24297146,0.13599758,-0.1208746,-0.84393203,-4.0875,-15.731251,-27.618752
1763129301177,-0.9607183,3.4660037,8.945567,-0.075594515,-0.25518876,-0.24297146,0.13386875,-0.121374875,-0.8452476,-4.0875,-15.731251,-27.618752
1763129301178,-0.9607183,3.4660037,8.945567,-0.075594515,-0.25518876,-0.24297146,0.13386875,-0.121374875,-0.8452476,-6.6000004,-17.60625,-27.712502
1763129301190,-0.9607183,3.4660037,8.945567,-0.12538,-0.28924447,-0.27656904,0.13386875,-0.121374875,-0.8452476,-6.6000004,-17.60625,-27.712502
1763129301191,-0.991825,3.313461,9.075378,-0.12538,-0.28924447,-0.27656904,0.13386875,-0.121374875,-0.8452476,-6.6000004,-17.60625,-27.712502
1763129301198,-0.991825,3.313461,9.075378,-0.12538,-0.28924447,-0.27656904,0.13130446,-0.12161325,-0.846711,-6.6000004,-17.60625,-27.712502
1763129301199,-0.991825,3.313461,9.075378,-0.12538,-0.28924447,-0.27656904,0.13130446,-0.12161325,-0.846711,-7.0875,-18.525002,-27.618752
1763129301208,-0.991825,3.313461,9.075378,-0.16676609,-0.30115634,-0.27183482,0.13130446,-0.12161325,-0.846711,-7.0875,-18.525002,-27.618752
1763129301209,-1.0319048,3.1758738,9.131011,-0.16676609,-0.30115634,-0.27183482,0.13130446,-0.12161325,-0.846711,-7.0875,-18.525002,-27.618752
1763129301219,-1.0319048,3.1758738,9.131011,-0.16676609,-0.30115634,-0.27183482,0.1282978,-0.12134986,-0.84852636,-7.0875,-18.525002,-27.618752
1763129301220,-1.0319048,3.1758738,9.131011,-0.16676609,-0.30115634,-0.27183482,0.1282978,-0.12134986,-0.84852636,-6.39375,-16.575,-25.95
1763129301232,-1.0319048,3.1758738,9.131011,-0.19165882,-0.3251328,-0.22937973,0.1282978,-0.12134986,-0.84852636,-6.39375,-16.575,-25.95
1763129301233,-1.0785648,3.0179477,9.214162,-0.19165882,-0.3251328,-0.22937973,0.1282978,-0.12134986,-0.84852636,-6.39375,-16.575,-25.95
1763129301239,-1.0785648,3.0179477,9.214162,-0.19165882,-0.3251328,-0.22937973,0.1282978,-0.12134986,-0.84852636,-6.8812504,-18.300001,-26.250002
1763129301240,-1.0785648,3.0179477,9.214162,-0.19165882,-0.3251328,-0.22937973,0.12490056,-0.120840415,-0.8502833,-6.8812504,-18.300001,-26.250002
1763129301251,-1.0785648,3.0179477,9.214162,-0.22021675,-0.30802858,-0.13332124,0.12490056,-0.120840415,-0.8502833,-6.8812504,-18.300001,-26.250002
1763129301252,-1.0899308,2.737389,9.345169,-0.22021675,-0.30802858,-0.13332124,0.12490056,-0.120840415,-0.8502833,-6.8812504,-18.300001,-26.250002
1763129301257,-1.0899308,2.737389,9.345169,-0.22021675,-0.30802858,-0.13332124,0.121351846,-0.119901575,-0.85179037,-6.8812504,-18.300001,-26.250002
1763129301258,-1.0899308,2.737389,9.345169,-0.22021675,-0.30802858,-0.13332124,0.121351846,-0.119901575,-0.85179037,-6.5062504,-15.150001,-25.612501
1763129301272,-1.0899308,2.737389,9.345169,-0.27427828,-0.22082762,-0.004123337,0.121351846,-0.119901575,-0.85179037,-6.5062504,-15.150001,-25.612501
1763129301273,-0.91405827,2.7146573,9.407382,-0.27427828,-0.22082762,-0.004123337,0.121351846,-0.119901575,-0.85179037,-6.5062504,-15.150001,-25.612501
1763129301278,-0.91405827,2.7146573,9.407382,-0.27427828,-0.22082762,-0.004123337,0.11784563,-0.11793737,-0.85323584,-6.5062504,-15.150001,-25.612501
1763129301279,-0.91405827,2.7146573,9.407382,-0.27427828,-0.22082762,-0.004123337,0.11784563,-0.11793737,-0.85323584,-5.49375,-15.093751,-26.23125
1763129301293,-0.91405827,2.7146573,9.407382,-0.35628688,-0.14767656,0.056810424,0.11784563,-0.11793737,-0.85323584,-5.49375,-15.093751,-26.23125
1763129301294,-0.75254273,2.9563324,9.239286,-0.35628688,-0.14767656,0.056810424,0.11784563,-0.11793737,-0.85323584,-5.49375,-15.093751,-26.23125
1763129301299,-0.75254273,2.9563324,9.239286,-0.35628688,-0.14767656,0.056810424,0.11428418,-0.115147956,-0.854441,-5.49375,-15.093751,-26.23125
1763129301300,-0.75254273,2.9563324,9.239286,-0.35628688,-0.14767656,0.056810424,0.11428418,-0.115147956,-0.854441,-6.0937505,-15.243751,-27.431252
1763129301315,-0.75254273,2.9563324,9.239286,-0.41447175,-0.182954,0.04092794,0.11428418,-0.115147956,-0.854441,-6.0937505,-15.243751,-27.431252
1763129301316,-0.8153543,3.0197423,9.239286,-0.41447175,-0.182954,0.04092794,0.11428418,-0.115147956,-0.854441,-6.0937505,-15.243751,-27.431252
1763129301318,-0.8153543,3.0197423,9.239286,-0.41447175,-0.182954,0.04092794,0.11428418,-0.115147956,-0.854441,-7.5000005,-17.643751,-26.60625
1763129301320,-0.8153543,3.0197423,9.239286,-0.41447175,-0.182954,0.04092794,0.1104758,-0.11245223,-0.8548715,-7.5000005,-17.643751,-26.60625
1763129301335,-0.8153543,3.0197423,9.239286,-0.41233373,-0.21364996,0.029474225,0.1104758,-0.11245223,-0.8548715,-7.5000005,-17.643751,-26.60625
1763129301336,-0.8769695,2.8486555,9.489935,-0.41233373,-0.21364996,0.029474225,0.1104758,-0.11245223,-0.8548715,-7.5000005,-17.643751,-26.60625
1763129301339,-0.8769695,2.8486555,9.489935,-0.41233373,-0.21364996,0.029474225,0.10681153,-0.10992187,-0.8548003,-7.5000005,-17.643751,-26.60625
1763129301340,-0.8769695,2.8486555,9.489935,-0.41233373,-0.21364996,0.029474225,0.10681153,-0.10992187,-0.8548003,-6.8625,-16.2,-24.825
1763129301356,-0.8769695,2.8486555,9.489935,-0.35017824,-0.17989968,0.053908817,0.10681153,-0.10992187,-0.8548003,-6.8625,-16.2,-24.825
1763129301358,-0.6879365,2.7918258,9.530014,-0.35017824,-0.17989968,0.053908817,0.10681153,-0.10992187,-0.8548003,-6.8625,-16.2,-24.825
1763129301359,-0.6879365,2.7918258,9.530014,-0.35017824,-0.17989968,0.053908817,0.103637345,-0.107557364,-0.85485923,-6.8625,-16.2,-24.825
1763129301360,-0.6879365,2.7918258,9.530014,-0.35017824,-0.17989968,0.053908817,0.103637345,-0.107557364,-0.85485923,-6.95625,-15.431251,-27.6375
1763129301379,-0.6879365,2.7918258,9.530014,-0.35017824,-0.17989968,0.053908817,0.10099237,-0.106234394,-0.8550314,-6.95625,-15.431251,-27.6375
1763129301381,-0.51864433,2.8378878,9.555139,-0.35017824,-0.17989968,0.053908817,0.10099237,-0.106234394,-0.8550314,-6.95625,-15.431251,-27.6375
1763129301382,-0.51864433,2.8378878,9.555139,-0.23732096,-0.15164718,0.053145237,0.10099237,-0.106234394,-0.8550314,-6.95625,-15.431251,-27.6375
1763129301384,-0.51864433,2.8378878,9.555139,-0.23732096,-0.15164718,0.053145237,0.10099237,-0.106234394,-0.8550314,-10.21875,-18.2625,-25.425001
1763129301398,-0.51864433,2.8378878,9.555139,-0.1178969,-0.06704241,0.019394957,0.10099237,-0.106234394,-0.8550314,-10.21875,-18.2625,-25.425001
1763129301399,-0.51864433,2.8378878,9.555139,-0.1178969,-0.06704241,0.019394957,0.0995774,-0.10574609,-0.8551939,-10.21875,-18.2625,-25.425001
1763129301400,-0.51864433,2.8378878,9.555139,-0.1178969,-0.06704241,0.019394957,0.0995774,-0.10574609,-0.8551939,-7.4625,-16.35,-25.425001
1763129301401,-0.52342993,2.7786653,9.506086,-0.1178969,-0.06704241,0.019394957,0.0995774,-0.10574609,-0.8551939,-7.4625,-16.35,-25.425001
1763129301418,-0.52342993,2.7786653,9.506086,-0.1178969,-0.06704241,0.019394957,0.0995774,-0.10574609,-0.8551939,-5.64375,-14.156251,-26.38125
1763129301419,-0.52342993,2.7786653,9.506086,-0.014813471,-0.009926553,0.002290743,0.0995774,-0.10574609,-0.8551939,-5.64375,-14.156251,-26.38125
1763129301420,-0.52342993,2.7786653,9.506086,-0.014813471,-0.009926553,0.002290743,0.09920081,-0.10581018,-0.8553711,-5.64375,-14.156251,-26.38125
1763129301422,-0.58983076,2.7631118,9.366704,-0.014813471,-0.009926553,0.002290743,0.09920081,-0.10581018,-0.8553711,-5.64375,-14.156251,-26.38125
1763129301437,-0.58983076,2.7631118,9.366704,-0.014813471,-0.009926553,0.002290743,0.09920081,-0.10581018,-0.8553711,-7.7812505,-15.937501,-25.931252
1763129301441,-0.5587241,2.8456643,9.338589,-0.014813471,-0.009926553,0.002290743,0.09920081,-0.10581018,-0.8553711,-7.7812505,-15.937501,-25.931252
1763129301442,-0.5587241,2.8456643,9.338589,0.07269291,-0.025045456,-0.014813471,0.09920081,-0.10581018,-0.8553711,-7.7812505,-15.937501,-25.931252
1763129301444,-0.5587241,2.8456643,9.338589,0.07269291,-0.025045456,-0.014813471,0.099324584,-0.106633246,-0.855409,-7.7812505,-15.937501,-25.931252
1763129301458,-0.5587241,2.8456643,9.338589,0.07269291,-0.025045456,-0.014813471,0.099324584,-0.106633246,-0.855409,-6.15,-14.925,-26.775002
1763129301462,-0.5587241,2.8456643,9.338589,0.11377356,-0.024587307,-0.04046979,0.099324584,-0.106633246,-0.855409,-6.15,-14.925,-26.775002
1763129301463,-0.5587241,2.8456643,9.338589,0.11377356,-0.024587307,-0.04046979,0.099740066,-0.107884325,-0.85538447,-6.15,-14.925,-26.775002
1763129301464,-0.54675996,2.7326035,9.180064,0.11377356,-0.024587307,-0.04046979,0.099740066,-0.107884325,-0.85538447,-6.15,-14.925,-26.775002
1763129301478,-0.54675996,2.7326035,9.180064,0.11377356,-0.024587307,-0.04046979,0.099740066,-0.107884325,-0.85538447,-7.4812503,-16.331251,-24.225
1763129301482,-0.54675996,2.7326035,9.180064,0.11377356,-0.024587307,-0.04046979,0.09979717,-0.10880739,-0.8556322,-7.4812503,-16.331251,-24.225
1763129301483,-0.6556334,2.6913273,9.132806,0.11377356,-0.024587307,-0.04046979,0.09979717,-0.10880739,-0.8556322,-7.4812503,-16.331251,-24.225
1763129301485,-0.6556334,2.6913273,9.132806,0.0810923,-0.03329213,-0.03970621,0.09979717,-0.10880739,-0.8556322,-7.4812503,-16.331251,-24.225
1763129301498,-0.6556334,2.6913273,9.132806,0.0810923,-0.03329213,-0.03970621,0.09979717,-0.10880739,-0.8556322,-6.6937504,-15.525001,-26.325
1763129301503,-0.6556334,2.6913273,9.132806,0.0810923,-0.03329213,-0.03970621,0.09923677,-0.109030694,-0.85575485,-6.6937504,-15.525001,-26.325
1763129301504,-0.7292127,2.6321049,9.335598,0.0810923,-0.03329213,-0.03970621,0.09923677,-0.109030694,-0.85575485,-6.6937504,-15.525001,-26.325
1763129301505,-0.7292127,2.6321049,9.335598,-0.0030543238,-0.07101303,-0.0108428495,0.09923677,-0.109030694,-0.85575485,-6.6937504,-15.525001,-26.325
1763129301517,-0.7292127,2.6321049,9.335598,-0.0030543238,-0.07101303,-0.0108428495,0.09923677,-0.109030694,-0.85575485,-7.2375,-16.143751,-26.325
1763129301524,-0.7292127,2.6321049,9.335598,-0.083688475,-0.07956514,0.03497201,0.09923677,-0.109030694,-0.85575485,-7.2375,-16.143751,-26.325
1763129301525,-0.7292127,2.6321049,9.335598,-0.083688475,-0.07956514,0.03497201,0.0981257,-0.1084423,-0.8559114,-7.2375,-16.143751,-26.325
1763129301526,-0.63948184,2.6273193,9.585648,-0.083688475,-0.07956514,0.03497201,0.0981257,-0.1084423,-0.8559114,-7.2375,-16.143751,-26.325
1763129301540,-0.63948184,2.6273193,9.585648,-0.083688475,-0.07956514,0.03497201,0.0981257,-0.1084423,-0.8559114,-7.3500004,-15.375001,-27.16875
1763129301545,-0.63948184,2.6273193,9.585648,-0.083688475,-0.07956514,0.03497201,0.09641404,-0.10746028,-0.8560801,-7.3500004,-15.375001,-27.16875
1763129301547,-0.63948184,2.6273193,9.585648,-0.14187334,-0.08124501,0.09300416,0.09641404,-0.10746028,-0.8560801,-7.3500004,-15.375001,-27.16875
1763129301548,-0.6442675,2.5812573,9.320642,-0.14187334,-0.08124501,0.09300416,0.09641404,-0.10746028,-0.8560801,-7.3500004,-15.375001,-27.16875
1763129301561,-0.6442675,2.5812573,9.320642,-0.14187334,-0.08124501,0.09300416,0.09641404,-0.10746028,-0.8560801,-6.61875,-14.400001,-26.906252
1763129301566,-0.6442675,2.5812573,9.320642,0.13408482,0.2283107,0.008857539,0.09641404,-0.10746028,-0.8560801,-6.61875,-14.400001,-26.906252
1763129301566,-0.56590253,2.6512475,10.209576,0.13408482,0.2283107,0.008857539,0.09641404,-0.10746028,-0.8560801,-6.61875,-14.400001,-26.906252
1763129301578,-0.56590253,2.6512475,10.209576,0.13408482,0.2283107,0.008857539,0.09898175,-0.10729588,-0.8560711,-6.61875,-14.400001,-26.906252
1763129301578,-0.56590253,2.6512475,10.209576,0.13408482,0.2283107,0.008857539,0.09898175,-0.10729588,-0.8560711,-7.05,-13.500001,-24.243752
1763129301587,-0.56590253,2.6512475,10.209576,0.5584831,0.40775225,-0.049327333,0.09898175,-0.10729588,-0.8560711,-7.05,-13.500001,-24.243752
1763129301588,-0.70348984,2.745764,10.056436,0.5584831,0.40775225,-0.049327333,0.09898175,-0.10729588,-0.8560711,-7.05,-13.500001,-24.243752
1763129301599,-0.70348984,2.745764,10.056436,0.5584831,0.40775225,-0.049327333,0.104592726,-0.109950446,-0.85687333,-7.05,-13.500001,-24.243752
1763129301600,-0.70348984,2.745764,10.056436,0.5584831,0.40775225,-0.049327333,0.104592726,-0.109950446,-0.85687333,-9.356251,-16.612501,-24.54375
1763129301607,-0.70348984,2.745764,10.056436,0.640339,0.320704,0.020922119,0.104592726,-0.109950446,-0.85687333,-9.356251,-16.612501,-24.54375
1763129301608,-0.657428,2.9862428,8.879167,0.640339,0.320704,0.020922119,0.104592726,-0.109950446,-0.85687333,-9.356251,-16.612501,-24.54375
1763129301617,-0.657428,2.9862428,8.879167,0.640339,0.320704,0.020922119,0.10991288,-0.113804616,-0.857109,-9.356251,-16.612501,-24.54375
1763129301618,-0.657428,2.9862428,8.879167,0.640339,0.320704,0.020922119,0.10991288,-0.113804616,-0.857109,-7.2375,-16.143751,-26.925001
1763129301629,-0.657428,2.9862428,8.879167,0.20876303,-0.017409647,0.07895427,0.10991288,-0.113804616,-0.857109,-7.2375,-16.143751,-26.925001
1763129301630,-0.7160522,3.1375887,7.6749787,0.20876303,-0.017409647,0.07895427,0.10991288,-0.113804616,-0.857109,-7.2375,-16.143751,-26.925001
1763129301640,-0.7160522,3.1375887,7.6749787,0.20876303,-0.017409647,0.07895427,0.110790394,-0.11602189,-0.856245,-7.2375,-16.143751,-26.925001
1763129301640,-0.7160522,3.1375887,7.6749787,0.20876303,-0.017409647,0.07895427,0.110790394,-0.11602189,-0.856245,-5.30625,-14.718751,-25.81875
1763129301650,-0.7160522,3.1375887,7.6749787,-0.45142907,-0.41325003,0.17043127,0.110790394,-0.11602189,-0.856245,-5.30625,-14.718751,-25.81875
1763129301651,-0.5599205,2.970091,7.628319,-0.45142907,-0.41325003,0.17043127,0.110790394,-0.11602189,-0.856245,-5.30625,-14.718751,-25.81875
1763129301671,-0.5599205,2.970091,7.628319,-0.45142907,-0.41325003,0.17043127,0.10586612,-0.11471239,-0.8541086,-5.30625,-14.718751,-25.81875
1763129301672,-0.5599205,2.970091,7.628319,-0.45142907,-0.41325003,0.17043127,0.10586612,-0.11471239,-0.8541086,-7.93125,-17.41875,-25.425001
1763129301672,-0.5599205,2.970091,7.628319,-0.7732021,-0.59467685,0.14065161,0.10586612,-0.11471239,-0.8541086,-7.93125,-17.41875,-25.425001
1763129301673,-0.2428715,3.1842487,8.867801,-0.7732021,-0.59467685,0.14065161,0.10586612,-0.11471239,-0.8541086,-7.93125,-17.41875,-25.425001
