timestamp,accX,accY,accZ,gyroX,gyroY,gyroZ,rotX,rotY,rotZ,magX,magY,magZ
1763129303479,-3.970291,5.404788,4.0570307,-0.1960876,-1.3261875,0.012064579,0.33144903,-0.1235941,-0.7778059,12.993751,-17.081251,-27.825
1763129303479,-3.2333016,5.3790655,4.2592244,-0.1960876,-1.3261875,0.012064579,0.33144903,-0.1235941,-0.7778059,12.993751,-17.081251,-27.825
1763129303480,-3.2333016,5.3790655,4.2592244,-0.1960876,-1.3261875,0.012064579,0.32035923,-0.12873667,-0.781249,12.993751,-17.081251,-27.825
1763129303480,-3.2333016,5.3790655,4.2592244,-0.1960876,-1.3261875,0.012064579,0.32035923,-0.12873667,-0.781249,7.425,-19.800001,-26.325
1763129303499,-3.2333016,5.3790655,4.2592244,-0.1960876,-1.3261875,0.012064579,0.30803058,-0.12681437,-0.7857616,7.425,-19.800001,-26.325
1763129303500,-3.2333016,5.3790655,4.2592244,-0.82359844,-1.0723732,-0.1989892,0.30803058,-0.12681437,-0.7857616,7.425,-19.800001,-26.325
1763129303500,-3.2333016,5.3790655,4.2592244,-0.82359844,-1.0723732,-0.1989892,0.30803058,-0.12681437,-0.7857616,8.00625,-20.15625,-27.862501
1763129303501,-2.6189444,6.203991,7.34776,-0.82359844,-1.0723732,-0.1989892,0.30803058,-0.12681437,-0.7857616,8.00625,-20.15625,-27.862501
1763129303518,-2.6189444,6.203991,7.34776,-0.82359844,-1.0723732,-0.1989892,0.29807037,-0.12178567,-0.7912721,8.00625,-20.15625,-27.862501
1763129303519,-2.6189444,6.203991,7.34776,-0.8949169,-0.7119629,-0.4978548,0.29807037,-0.12178567,-0.7912721,8.00625,-20.15625,-27.862501
1763129303519,-2.6189444,6.203991,7.34776,-0.8949169,-0.7119629,-0.4978548,0.29807037,-0.12178567,-0.7912721,8.118751,-19.181252,-29.00625
1763129303520,-2.2767708,5.5836515,8.909675,-0.8949169,-0.7119629,-0.4978548,0.29807037,-0.12178567,-0.7912721,8.118751,-19.181252,-29.00625
1763129303538,-2.2767708,5.5836515,8.909675,-0.8949169,-0.7119629,-0.4978548,0.29807037,-0.12178567,-0.7912721,7.1062503,-16.35,-26.56875
1763129303539,-2.2767708,5.5836515,8.909675,-0.5022836,-0.7634283,-0.5506946,0.29807037,-0.12178567,-0.7912721,7.1062503,-16.35,-26.56875
1763129303540,-2.2767708,5.5836515,8.909675,-0.5022836,-0.7634283,-0.5506946,0.28940046,-0.12034095,-0.7973248,7.1062503,-16.35,-26.56875
1763129303540,-3.2237303,4.5619164,8.103892,-0.5022836,-0.7634283,-0.5506946,0.28940046,-0.12034095,-0.7973248,7.1062503,-16.35,-26.56875
1763129303558,-3.2237303,4.5619164,8.103892,-0.5022836,-0.7634283,-0.5506946,0.28940046,-0.12034095,-0.7973248,6.43125,-19.875,-27.50625
1763129303559,-3.2237303,4.5619164,8.103892,-0.5022836,-0.7634283,-0.5506946,0.2801899,-0.12155294,-0.80269784,6.43125,-19.875,-27.50625
1763129303561,-3.2237303,4.5619164,8.103892,-0.32559094,-0.93844104,-0.3773617,0.2801899,-0.12155294,-0.80269784,6.43125,-19.875,-27.50625
1763129303562,-3.9948175,4.642076,7.8783684,-0.32559094,-0.93844104,-0.3773617,0.2801899,-0.12155294,-0.80269784,6.43125,-19.875,-27.50625
1763129303578,-3.9948175,4.642076,7.8783684,-0.32559094,-0.93844104,-0.3773617,0.2801899,-0.12155294,-0.80269784,4.70625,-21.09375,-27.69375
1763129303581,-3.9948175,4.642076,7.8783684,-0.31749696,-0.78984815,-0.3280344,0.2801899,-0.12155294,-0.80269784,4.70625,-21.09375,-27.69375
1763129303582,-3.9948175,4.642076,7.8783684,-0.31749696,-0.78984815,-0.3280344,0.27246308,-0.12194873,-0.80698997,4.70625,-21.09375,-27.69375
1763129303583,-3.4199417,4.995017,9.266206,-0.31749696,-0.78984815,-0.3280344,0.27246308,-0.12194873,-0.80698997,4.70625,-21.09375,-27.69375
1763129303598,-3.4199417,4.995017,9.266206,-0.31749696,-0.78984815,-0.3280344,0.27246308,-0.12194873,-0.80698997,7.36875,-17.737501,-28.3875
1763129303602,-3.4199417,4.995017,9.266206,-0.3573559,-0.30405796,-0.41996953,0.27246308,-0.12194873,-0.80698997,7.36875,-17.737501,-28.3875
1763129303603,-3.045465,4.638487,9.328419,-0.3573559,-0.30405796,-0.41996953,0.27246308,-0.12194873,-0.80698997,7.36875,-17.737501,-28.3875
1763129303604,-3.045465,4.638487,9.328419,-0.3573559,-0.30405796,-0.41996953,0.26844004,-0.11938706,-0.81068844,7.36875,-17.737501,-28.3875
1763129303618,-3.045465,4.638487,9.328419,-0.3573559,-0.30405796,-0.41996953,0.26844004,-0.11938706,-0.81068844,5.71875,-18.46875,-30.206251
1763129303623,-3.045465,4.638487,9.328419,-0.33628106,-0.11255184,-0.41798422,0.26844004,-0.11938706,-0.81068844,5.71875,-18.46875,-30.206251
1763129303624,-3.045465,4.638487,9.328419,-0.33628106,-0.11255184,-0.41798422,0.26601115,-0.116061665,-0.8139351,5.71875,-18.46875,-30.206251
1763129303625,-3.3720853,4.475775,8.639884,-0.33628106,-0.11255184,-0.41798422,0.26601115,-0.116061665,-0.8139351,5.71875,-18.46875,-30.206251
1763129303637,-3.3720853,4.475775,8.639884,-0.33628106,-0.11255184,-0.41798422,0.26601115,-0.116061665,-0.8139351,4.03125,-18.50625,-28.10625
1763129303644,-3.3720853,4.475775,8.639884,-0.33628106,-0.11255184,-0.41798422,0.2624808,-0.115528606,-0.81686026,4.03125,-18.50625,-28.10625
1763129303645,-3.5156546,4.2125645,8.3174515,-0.33628106,-0.11255184,-0.41798422,0.2624808,-0.115528606,-0.81686026,4.03125,-18.50625,-28.10625
1763129303646,-3.5156546,4.2125645,8.3174515,-0.17012584,-0.35338527,-0.32268932,0.2624808,-0.115528606,-0.81686026,4.03125,-18.50625,-28.10625
1763129303658,-3.5156546,4.2125645,8.3174515,-0.17012584,-0.35338527,-0.32268932,0.2624808,-0.115528606,-0.81686026,4.6125,-19.66875,-28.5375
1763129303665,-3.5156546,4.2125645,8.3174515,-0.062613636,-0.49464774,-0.2215912,0.2624808,-0.115528606,-0.81686026,4.6125,-19.66875,-28.5375
1763129303667,-3.4283166,4.0594234,8.571091,-0.062613636,-0.49464774,-0.2215912,0.2624808,-0.115528606,-0.81686026,4.6125,-19.66875,-28.5375
1763129303678,-3.4283166,4.0594234,8.571091,-0.062613636,-0.49464774,-0.2215912,0.25825173,-0.11684205,-0.81942016,4.6125,-19.66875,-28.5375
1763129303679,-3.4283166,4.0594234,8.571091,-0.062613636,-0.49464774,-0.2215912,0.25825173,-0.11684205,-0.81942016,5.4375,-16.10625,-28.95
1763129303686,-3.4283166,4.0594234,8.571091,-0.07238748,-0.34269515,-0.11102467,0.25825173,-0.11684205,-0.81942016,5.4375,-16.10625,-28.95
1763129303686,-3.1812577,3.9894335,8.7780695,-0.07238748,-0.34269515,-0.11102467,0.25825173,-0.11684205,-0.81942016,5.4375,-16.10625,-28.95
1763129303697,-3.1812577,3.9894335,8.7780695,-0.07238748,-0.34269515,-0.11102467,0.25505576,-0.117616996,-0.8211479,5.4375,-16.10625,-28.95
1763129303698,-3.1812577,3.9894335,8.7780695,-0.07238748,-0.34269515,-0.11102467,0.25505576,-0.117616996,-0.8211479,4.05,-18.525002,-29.175001
1763129303707,-3.1812577,3.9894335,8.7780695,-0.08048143,-0.12324197,-0.013897174,0.25505576,-0.117616996,-0.8211479,4.05,-18.525002,-29.175001
1763129303708,-2.8570302,4.1844487,8.708079,-0.08048143,-0.12324197,-0.013897174,0.25505576,-0.117616996,-0.8211479,4.05,-18.525002,-29.175001
1763129303717,-2.8570302,4.1844487,8.708079,-0.08048143,-0.12324197,-0.013897174,0.2535066,-0.11746434,-0.8218271,4.05,-18.525002,-29.175001
1763129303717,-2.8570302,4.1844487,8.708079,-0.08048143,-0.12324197,-0.013897174,0.2535066,-0.11746434,-0.8218271,1.81875,-20.625,-27.900002
1763129303728,-2.8570302,4.1844487,8.708079,-0.022143848,-0.03405571,0.01725693,0.2535066,-0.11746434,-0.8218271,1.81875,-20.625,-27.900002
1763129303729,-2.7613173,4.458427,8.319246,-0.022143848,-0.03405571,0.01725693,0.2535066,-0.11746434,-0.8218271,1.81875,-20.625,-27.900002
1763129303738,-2.7613173,4.458427,8.319246,-0.022143848,-0.03405571,0.01725693,0.25297722,-0.11748377,-0.8219474,1.81875,-20.625,-27.900002
1763129303739,-2.7613173,4.458427,8.319246,-0.022143848,-0.03405571,0.01725693,0.25297722,-0.11748377,-0.8219474,3.4687502,-18.825,-29.868752
1763129303749,-2.7613173,4.458427,8.319246,0.023060145,-0.09376775,0.016187917,0.25297722,-0.11748377,-0.8219474,3.4687502,-18.825,-29.868752
1763129303751,-2.8701909,4.5332026,7.827521,0.023060145,-0.09376775,0.016187917,0.25297722,-0.11748377,-0.8219474,3.4687502,-18.825,-29.868752
1763129303758,-2.8701909,4.5332026,7.827521,0.023060145,-0.09376775,0.016187917,0.25225914,-0.11822213,-0.8220175,3.4687502,-18.825,-29.868752
1763129303760,-2.8701909,4.5332026,7.827521,0.023060145,-0.09376775,0.016187917,0.25225914,-0.11822213,-0.8220175,3.61875,-18.28125,-27.54375
1763129303770,-2.8701909,4.5332026,7.827521,0.03649917,-0.2490801,-0.0059559317,0.25225914,-0.11822213,-0.8220175,3.61875,-18.28125,-27.54375
1763129303772,-2.7918258,4.549354,7.6713896,0.03649917,-0.2490801,-0.0059559317,0.25225914,-0.11822213,-0.8220175,3.61875,-18.28125,-27.54375
1763129303781,-2.7918258,4.549354,7.6713896,0.03649917,-0.2490801,-0.0059559317,0.25225914,-0.11822213,-0.8220175,3.2250001,-18.88125,-29.625002
1763129303782,-2.7918258,4.549354,7.6713896,0.03649917,-0.2490801,-0.0059559317,0.2504478,-0.11973381,-0.82234687,3.2250001,-18.88125,-29.625002
1763129303791,-2.7918258,4.549354,7.6713896,-0.01725693,-0.32559094,-0.060475614,0.2504478,-0.11973381,-0.82234687,3.2250001,-18.88125,-29.625002
1763129303792,-2.684747,4.540381,7.821539,-0.01725693,-0.32559094,-0.060475614,0.2504478,-0.11973381,-0.82234687,3.2250001,-18.88125,-29.625002
1763129303797,-2.684747,4.540381,7.821539,-0.01725693,-0.32559094,-0.060475614,0.24776705,-0.12108555,-0.82327235,3.2250001,-18.88125,-29.625002
1763129303798,-2.684747,4.540381,7.821539,-0.01725693,-0.32559094,-0.060475614,0.24776705,-0.12108555,-0.82327235,5.3625,-17.25,-27.900002
1763129303812,-2.684747,4.540381,7.821539,-0.107054055,-0.3092503,-0.1301142,0.24776705,-0.12108555,-0.82327235,5.3625,-17.25,-27.900002
1763129303813,-2.4245276,4.557729,8.0817585,-0.107054055,-0.3092503,-0.1301142,0.24776705,-0.12108555,-0.82327235,5.3625,-17.25,-27.900002
1763129303818,-2.4245276,4.557729,8.0817585,-0.107054055,-0.3092503,-0.1301142,0.24480745,-0.12142482,-0.8246757,5.3625,-17.25,-27.900002
1763129303819,-2.4245276,4.557729,8.0817585,-0.107054055,-0.3092503,-0.1301142,0.24480745,-0.12142482,-0.8246757,3.8812501,-17.4375,-29.962502
1763129303833,-2.4245276,4.557729,8.0817585,-0.1640172,-0.28237224,-0.21242823,0.24480745,-0.12142482,-0.8246757,3.8812501,-17.4375,-29.962502
1763129303834,-2.501098,4.5242295,8.027322,-0.1640172,-0.28237224,-0.21242823,0.24480745,-0.12142482,-0.8246757,3.8812501,-17.4375,-29.962502
1763129303838,-2.501098,4.5242295,8.027322,-0.1640172,-0.28237224,-0.21242823,0.24180767,-0.12097373,-0.8265519,3.8812501,-17.4375,-29.962502
1763129303839,-2.501098,4.5242295,8.027322,-0.1640172,-0.28237224,-0.21242823,0.24180767,-0.12097373,-0.8265519,4.14375,-16.725,-29.156252
1763129303854,-2.501098,4.5242295,8.027322,-0.16203189,-0.37766716,-0.23258677,0.24180767,-0.12097373,-0.8265519,4.14375,-16.725,-29.156252
1763129303855,-2.6925237,4.4374895,8.025527,-0.16203189,-0.37766716,-0.23258677,0.24180767,-0.12097373,-0.8265519,4.14375,-16.725,-29.156252
1763129303859,-2.6925237,4.4374895,8.025527,-0.16203189,-0.37766716,-0.23258677,0.23806179,-0.120939516,-0.8286871,4.14375,-16.725,-29.156252
1763129303861,-2.6925237,4.4374895,8.025527,-0.16203189,-0.37766716,-0.23258677,0.23806179,-0.120939516,-0.8286871,4.33125,-17.8125,-29.118752
1763129303875,-2.6925237,4.4374895,8.025527,-0.1395826,-0.5352703,-0.24495678,0.23806179,-0.120939516,-0.8286871,4.33125,-17.8125,-29.118752
1763129303876,-2.6721847,4.4638104,8.052446,-0.1395826,-0.5352703,-0.24495678,0.23806179,-0.120939516,-0.8286871,4.33125,-17.8125,-29.118752
1763129303877,-2.6721847,4.4638104,8.052446,-0.1395826,-0.5352703,-0.24495678,0.2331025,-0.1218749,-0.831303,4.33125,-17.8125,-29.118752
1763129303878,-2.6721847,4.4638104,8.052446,-0.1395826,-0.5352703,-0.24495678,0.2331025,-0.1218749,-0.831303,3.5625002,-17.175001,-27.69375
1763129303896,-2.6721847,4.4638104,8.052446,-0.17653993,-0.62827444,-0.2930624,0.2331025,-0.1218749,-0.831303,3.5625002,-17.175001,-27.69375
1763129303898,-2.533401,4.4949174,8.110473,-0.17653993,-0.62827444,-0.2930624,0.2331025,-0.1218749,-0.831303,3.5625002,-17.175001,-27.69375
1763129303900,-2.533401,4.4949174,8.110473,-0.17653993,-0.62827444,-0.2930624,0.22721724,-0.122848794,-0.8343887,3.5625002,-17.175001,-27.69375
1763129303902,-2.533401,4.4949174,8.110473,-0.17653993,-0.62827444,-0.2930624,0.22721724,-0.122848794,-0.8343887,3.9750001,-16.462502,-29.587502
1763129303918,-2.533401,4.4949174,8.110473,-0.17653993,-0.62827444,-0.2930624,0.2209291,-0.12267271,-0.83798075,3.9750001,-16.462502,-29.587502
1763129303919,-2.533401,4.4949174,8.110473,-0.17653993,-0.62827444,-0.2930624,0.2209291,-0.12267271,-0.83798075,1.48125,-17.6625,-28.650002
1763129303921,-2.533401,4.4949174,8.110473,-0.2784016,-0.63148147,-0.39721483,0.2209291,-0.12267271,-0.83798075,1.48125,-17.6625,-28.650002
1763129303922,-2.3611178,4.377669,8.349156,-0.2784016,-0.63148147,-0.39721483,0.2209291,-0.12267271,-0.83798075,1.48125,-17.6625,-28.650002
1763129303939,-2.3611178,4.377669,8.349156,-0.2784016,-0.63148147,-0.39721483,0.214661,-0.1212777,-0.8418302,1.48125,-17.6625,-28.650002
1763129303939,-2.3611178,4.377669,8.349156,-0.37323838,-0.5728384,-0.44638944,0.214661,-0.1212777,-0.8418302,1.48125,-17.6625,-28.650002
1763129303941,-2.3611178,4.377669,8.349156,-0.37323838,-0.5728384,-0.44638944,0.214661,-0.1212777,-0.8418302,2.7375002,-17.38125,-30.16875
1763129303943,-2.376671,3.9230328,8.531011,-0.37323838,-0.5728384,-0.44638944,0.214661,-0.1212777,-0.8418302,2.7375002,-17.38125,-30.16875
1763129303958,-2.376671,3.9230328,8.531011,-0.41844237,-0.59559315,-0.37369654,0.214661,-0.1212777,-0.8418302,2.7375002,-17.38125,-30.16875
1763129303959,-2.376671,3.9230328,8.531011,-0.41844237,-0.59559315,-0.37369654,0.20779264,-0.11971826,-0.84551543,2.7375002,-17.38125,-30.16875
1763129303960,-2.480759,3.7411783,8.447861,-0.41844237,-0.59559315,-0.37369654,0.20779264,-0.11971826,-0.84551543,2.7375002,-17.38125,-30.16875
1763129303960,-2.480759,3.7411783,8.447861,-0.41844237,-0.59559315,-0.37369654,0.20779264,-0.11971826,-0.84551543,0.82500005,-17.5125,-29.475
1763129303977,-2.480759,3.7411783,8.447861,-0.41844237,-0.59559315,-0.37369654,0.20779264,-0.11971826,-0.84551543,-0.20625001,-16.7625,-28.0125
1763129303980,-2.480759,3.7411783,8.447861,-0.4714349,-0.7174607,-0.2941314,0.20779264,-0.11971826,-0.84551543,-0.20625001,-16.7625,-28.0125
1763129303980,-2.480759,3.7411783,8.447861,-0.4714349,-0.7174607,-0.2941314,0.19952048,-0.11840877,-0.8490203,-0.20625001,-16.7625,-28.0125
1763129303981,-2.2815564,3.8781674,8.311469,-0.4714349,-0.7174607,-0.2941314,0.19952048,-0.11840877,-0.8490203,-0.20625001,-16.7625,-28.0125
1763129303999,-2.2815564,3.8781674,8.311469,-0.4714349,-0.7174607,-0.2941314,0.19952048,-0.11840877,-0.8490203,-1.9125,-18.13125,-28.0125
1763129304000,-1.948954,4.1347976,8.488539,-0.4714349,-0.7174607,-0.2941314,0.19952048,-0.11840877,-0.8490203,-1.9125,-18.13125,-28.0125
1763129304001,-1.948954,4.1347976,8.488539,-0.5212204,-0.94164807,-0.28802276,0.19952048,-0.11840877,-0.8490203,-1.9125,-18.13125,-28.0125
1763129304002,-1.948954,4.1347976,8.488539,-0.5212204,-0.94164807,-0.28802276,0.18903436,-0.11780008,-0.85280126,-1.9125,-18.13125,-28.0125
1763129304018,-1.948954,4.1347976,8.488539,-0.5212204,-0.94164807,-0.28802276,0.18903436,-0.11780008,-0.85280126,-2.5125,-18.2625,-28.44375
1763129304022,-1.948954,4.1347976,8.488539,-0.6253728,-0.93721926,-0.41233373,0.18903436,-0.11780008,-0.85280126,-2.5125,-18.2625,-28.44375
1763129304023,-1.948954,4.1347976,8.488539,-0.6253728,-0.93721926,-0.41233373,0.17820491,-0.11605973,-0.85711277,-2.5125,-18.2625,-28.44375
1763129304024,-1.7024933,3.9613178,8.705089,-0.6253728,-0.93721926,-0.41233373,0.17820491,-0.11605973,-0.85711277,-2.5125,-18.2625,-28.44375
1763129304039,-1.7024933,3.9613178,8.705089,-0.6253728,-0.93721926,-0.41233373,0.17820491,-0.11605973,-0.85711277,-1.9687501,-16.06875,-29.025002
1763129304043,-1.7024933,3.9613178,8.705089,-0.8420771,-0.8504765,-0.50991935,0.17820491,-0.11605973,-0.85711277,-1.9687501,-16.06875,-29.025002
1763129304043,-1.7024933,3.9613178,8.705089,-0.8420771,-0.8504765,-0.50991935,0.16712563,-0.11177898,-0.86191976,-1.9687501,-16.06875,-29.025002
1763129304045,-1.847259,3.3565319,8.632108,-0.8420771,-0.8504765,-0.50991935,0.16712563,-0.11177898,-0.86191976,-1.9687501,-16.06875,-29.025002
1763129304057,-1.847259,3.3565319,8.632108,-0.8420771,-0.8504765,-0.50991935,0.16712563,-0.11177898,-0.86191976,-3.99375,-17.962502,-27.300001
1763129304064,-1.847259,3.3565319,8.632108,-1.0195333,-0.8961386,-0.37476555,0.16712563,-0.11177898,-0.86191976,-3.99375,-17.962502,-27.300001
1763129304065,-1.847259,3.3565319,8.632108,-1.0195333,-0.8961386,-0.37476555,0.15459338,-0.106239185,-0.8662443,-3.99375,-17.962502,-27.300001
1763129304066,-1.9621146,2.8444679,8.963513,-1.0195333,-0.8961386,-0.37476555,0.15459338,-0.106239185,-0.8662443,-3.99375,-17.962502,-27.300001
1763129304077,-1.9621146,2.8444679,8.963513,-1.0195333,-0.8961386,-0.37476555,0.15459338,-0.106239185,-0.8662443,-3.7500002,-14.700001,-27.187502
1763129304085,-1.9621146,2.8444679,8.963513,-1.0541999,-0.85948676,-0.18096869,0.15459338,-0.106239185,-0.8662443,-3.7500002,-14.700001,-27.187502
1763129304085,-1.9621146,2.8444679,8.963513,-1.0541999,-0.85948676,-0.18096869,0.1419624,-0.10041934,-0.86952066,-3.7500002,-14.700001,-27.187502
1763129304086,-1.6570296,2.6578279,9.57488,-1.0541999,-0.85948676,-0.18096869,0.1419624,-0.10041934,-0.86952066,-3.7500002,-14.700001,-27.187502
1763129304099,-1.6570296,2.6578279,9.57488,-1.0541999,-0.85948676,-0.18096869,0.1419624,-0.10041934,-0.86952066,-12.4875,-20.5125,-19.59375
1763129304106,-1.4231312,2.6243281,9.848858,-1.0541999,-0.85948676,-0.18096869,0.1419624,-0.10041934,-0.86952066,-12.4875,-20.5125,-19.59375
1763129304106,-1.4231312,2.6243281,9.848858,-0.9459241,-0.6843213,-0.10797035,0.1419624,-0.10041934,-0.86952066,-12.4875,-20.5125,-19.59375
1763129304118,-1.4231312,2.6243281,9.848858,-0.9459241,-0.6843213,-0.10797035,0.1419624,-0.10041934,-0.86952066,-10.725,-19.462502,-21.018751
1763129304118,-1.4231312,2.6243281,9.848858,-0.9459241,-0.6843213,-0.10797035,0.13125047,-0.0948645,-0.87203276,-10.725,-19.462502,-21.018751
1763129304127,-1.4231312,2.6243281,9.848858,-0.75212723,-0.5532908,-0.1348484,0.13125047,-0.0948645,-0.87203276,-10.725,-19.462502,-21.018751
1763129304127,-1.3016955,2.6668007,9.821341,-0.75212723,-0.5532908,-0.1348484,0.13125047,-0.0948645,-0.87203276,-10.725,-19.462502,-21.018751
1763129304137,-1.3016955,2.6668007,9.821341,-0.75212723,-0.5532908,-0.1348484,0.122654594,-0.090437315,-0.8742044,-10.725,-19.462502,-21.018751
1763129304138,-1.3016955,2.6668007,9.821341,-0.75212723,-0.5532908,-0.1348484,0.122654594,-0.090437315,-0.8742044,-13.012501,-18.862501,-19.875
1763129304148,-1.3016955,2.6668007,9.821341,-0.57574004,-0.54580766,-0.19975278,0.122654594,-0.090437315,-0.8742044,-13.012501,-18.862501,-19.875
1763129304148,-1.180858,2.7361927,9.361918,-0.57574004,-0.54580766,-0.19975278,0.122654594,-0.090437315,-0.8742044,-13.012501,-18.862501,-19.875
1763129304157,-1.180858,2.7361927,9.361918,-0.57574004,-0.54580766,-0.19975278,0.115062885,-0.08752694,-0.8763697,-13.012501,-18.862501,-19.875
1763129304157,-1.180858,2.7361927,9.361918,-0.57574004,-0.54580766,-0.19975278,0.115062885,-0.08752694,-0.8763697,-10.556251,-18.9375,-20.493752
1763129304168,-1.180858,2.7361927,9.361918,-0.4827359,-0.6195696,-0.2376264,0.115062885,-0.08752694,-0.8763697,-10.556251,-18.9375,-20.493752
1763129304171,-1.2664014,2.41376,9.475577,-0.4827359,-0.6195696,-0.2376264,0.115062885,-0.08752694,-0.8763697,-10.556251,-18.9375,-20.493752
1763129304179,-1.2664014,2.41376,9.475577,-0.4827359,-0.6195696,-0.2376264,0.10733408,-0.08581065,-0.87853336,-10.556251,-18.9375,-20.493752
1763129304179,-1.2664014,2.41376,9.475577,-0.4827359,-0.6195696,-0.2376264,0.10733408,-0.08581065,-0.87853336,-11.212501,-15.075001,-18.993752
1763129304190,-1.2664014,2.41376,9.475577,-0.43692103,-0.5195405,-0.17760894,0.10733408,-0.08581065,-0.87853336,-11.212501,-15.075001,-18.993752
1763129304191,-1.3274183,1.948954,9.817153,-0.43692103,-0.5195405,-0.17760894,0.10733408,-0.08581065,-0.87853336,-11.212501,-15.075001,-18.993752
1763129304198,-1.3274183,1.948954,9.817153,-0.43692103,-0.5195405,-0.17760894,0.1006872,-0.08403459,-0.8802535,-11.212501,-15.075001,-18.993752
1763129304198,-1.3274183,1.948954,9.817153,-0.43692103,-0.5195405,-0.17760894,0.1006872,-0.08403459,-0.8802535,-12.0375,-16.893751,-21.7875
1763129304211,-1.3274183,1.948954,9.817153,-0.3695732,-0.35888305,-0.049327333,0.1006872,-0.08403459,-0.8802535,-12.0375,-16.893751,-21.7875
1763129304212,-1.2000005,1.8646071,9.900304,-0.3695732,-0.35888305,-0.049327333,0.1006872,-0.08403459,-0.8802535,-12.0375,-16.893751,-21.7875
1763129304217,-1.2000005,1.8646071,9.900304,-0.3695732,-0.35888305,-0.049327333,0.0956775,-0.08215823,-0.88123953,-12.0375,-16.893751,-21.7875
1763129304218,-1.2000005,1.8646071,9.900304,-0.3695732,-0.35888305,-0.049327333,0.0956775,-0.08215823,-0.88123953,-10.8,-17.25,-23.737501
1763129304232,-1.2000005,1.8646071,9.900304,-0.2695441,-0.2762636,0.03970621,0.0956775,-0.08215823,-0.88123953,-10.8,-17.25,-23.737501
1763129304232,-0.92542416,2.0703897,9.912268,-0.2695441,-0.2762636,0.03970621,0.0956775,-0.08215823,-0.88123953,-10.8,-17.25,-23.737501
1763129304237,-0.92542416,2.0703897,9.912268,-0.2695441,-0.2762636,0.03970621,0.09180301,-0.08090424,-0.88164324,-10.8,-17.25,-23.737501
1763129304237,-0.92542416,2.0703897,9.912268,-0.2695441,-0.2762636,0.03970621,0.09180301,-0.08090424,-0.88164324,-11.400001,-16.59375,-24.393751
1763129304253,-0.92542416,2.0703897,9.912268,-0.1545488,-0.1802051,0.014202606,0.09180301,-0.08090424,-0.88164324,-11.400001,-16.59375,-24.393751
1763129304254,-0.78664047,2.248057,9.823733,-0.1545488,-0.1802051,0.014202606,0.09180301,-0.08090424,-0.88164324,-11.400001,-16.59375,-24.393751
1763129304259,-0.78664047,2.248057,9.823733,-0.1545488,-0.1802051,0.014202606,0.09180301,-0.08090424,-0.88164324,-10.5375,-16.556252,-22.650002
1763129304260,-0.78664047,2.248057,9.823733,-0.1545488,-0.1802051,0.014202606,0.08936564,-0.080306895,-0.881937,-10.5375,-16.556252,-22.650002
1763129304274,-0.78664047,2.248057,9.823733,-0.03008509,-0.11178826,-0.05177079,0.08936564,-0.080306895,-0.881937,-10.5375,-16.556252,-22.650002
1763129304275,-0.9487542,2.1936202,9.816555,-0.03008509,-0.11178826,-0.05177079,0.08936564,-0.080306895,-0.881937,-10.5375,-16.556252,-22.650002
1763129304279,-0.9487542,2.1936202,9.816555,-0.03008509,-0.11178826,-0.05177079,0.088217646,-0.080521874,-0.882325,-10.5375,-16.556252,-22.650002
1763129304280,-0.9487542,2.1936202,9.816555,-0.03008509,-0.11178826,-0.05177079,0.088217646,-0.080521874,-0.882325,-8.887501,-13.950001,-25.725
1763129304295,-0.9487542,2.1936202,9.816555,0.108581215,-0.05589413,-0.062002774,0.088217646,-0.080521874,-0.882325,-8.887501,-13.950001,-25.725
1763129304296,-0.8961121,2.120041,9.75135,0.108581215,-0.05589413,-0.062002774,0.088217646,-0.080521874,-0.882325,-8.887501,-13.950001,-25.725
1763129304298,-0.8961121,2.120041,9.75135,0.108581215,-0.05589413,-0.062002774,0.08829223,-0.081705086,-0.8825781,-8.887501,-13.950001,-25.725
1763129304299,-0.8961121,2.120041,9.75135,0.108581215,-0.05589413,-0.062002774,0.08829223,-0.081705086,-0.8825781,-9.1125,-14.156251,-24.825
1763129304316,-0.8961121,2.120041,9.75135,0.21731515,-0.041233372,-0.049938194,0.08829223,-0.081705086,-0.8825781,-9.1125,-14.156251,-24.825
1763129304317,-0.7573284,2.2319052,9.668798,0.21731515,-0.041233372,-0.049938194,0.08829223,-0.081705086,-0.8825781,-9.1125,-14.156251,-24.825
1763129304319,-0.7573284,2.2319052,9.668798,0.21731515,-0.041233372,-0.049938194,0.08898148,-0.083826974,-0.88271105,-9.1125,-14.156251,-24.825
1763129304320,-0.7573284,2.2319052,9.668798,0.21731515,-0.041233372,-0.049938194,0.08898148,-0.083826974,-0.88271105,-9.65625,-16.368752,-24.862501
1763129304338,-0.7573284,2.2319052,9.668798,0.21731515,-0.041233372,-0.049938194,0.0899944,-0.08592042,-0.8827728,-9.65625,-16.368752,-24.862501
1763129304339,-0.7573284,2.2319052,9.668798,0.22693627,-0.008246674,-0.044134982,0.0899944,-0.08592042,-0.8827728,-9.65625,-16.368752,-24.862501
1763129304341,-0.7573284,2.2319052,9.668798,0.22693627,-0.008246674,-0.044134982,0.0899944,-0.08592042,-0.8827728,-7.5000005,-14.587501,-25.29375
1763129304342,-0.76271224,2.2624137,9.352347,0.22693627,-0.008246674,-0.044134982,0.0899944,-0.08592042,-0.8827728,-7.5000005,-14.587501,-25.29375
1763129304358,-0.76271224,2.2624137,9.352347,0.13041963,-3.054324E-4,-0.037568185,0.0899944,-0.08592042,-0.8827728,-7.5000005,-14.587501,-25.29375
1763129304359,-0.76271224,2.2624137,9.352347,0.13041963,-3.054324E-4,-0.037568185,0.090636484,-0.087096035,-0.88284343,-7.5000005,-14.587501,-25.29375
1763129304360,-0.8147561,2.3276181,9.081959,0.13041963,-3.054324E-4,-0.037568185,0.090636484,-0.087096035,-0.88284343,-7.5000005,-14.587501,-25.29375
1763129304362,-0.8147561,2.3276181,9.081959,0.13041963,-3.054324E-4,-0.037568185,0.090636484,-0.087096035,-0.88284343,-8.55,-15.150001,-26.212502
1763129304377,-0.8147561,2.3276181,9.081959,0.13041963,-3.054324E-4,-0.037568185,0.090636484,-0.087096035,-0.88284343,-8.475,-14.156251,-25.5375
1763129304380,-0.8147561,2.3276181,9.081959,0.014813471,-0.05894845,-0.0151189035,0.090636484,-0.087096035,-0.88284343,-8.475,-14.156251,-25.5375
1763129304380,-0.8147561,2.3276181,9.081959,0.014813471,-0.05894845,-0.0151189035,0.09021069,-0.08750648,-0.88290226,-8.475,-14.156251,-25.5375
1763129304382,-0.7645068,2.3862424,9.079565,0.014813471,-0.05894845,-0.0151189035,0.09021069,-0.08750648,-0.88290226,-8.475,-14.156251,-25.5375
1763129304397,-0.7645068,2.3862424,9.079565,0.014813471,-0.05894845,-0.0151189035,0.09021069,-0.08750648,-0.88290226,-8.400001,-14.625001,-24.6375
1763129304400,-0.7645068,2.3862424,9.079565,0.014813471,-0.05894845,-0.0151189035,0.08881303,-0.087529756,-0.8829889,-8.400001,-14.625001,-24.6375
1763129304400,-0.7645068,2.3862424,9.079565,-0.06307179,-0.12278382,0.0025961753,0.08881303,-0.087529756,-0.8829889,-8.400001,-14.625001,-24.6375
1763129304402,-0.61914283,2.4502504,9.190233,-0.06307179,-0.12278382,0.0025961753,0.08881303,-0.087529756,-0.8829889,-8.400001,-14.625001,-24.6375
1763129304418,-0.61914283,2.4502504,9.190233,-0.06307179,-0.12278382,0.0025961753,0.08881303,-0.087529756,-0.8829889,-8.26875,-15.39375,-25.1625
1763129304421,-0.61914283,2.4502504,9.190233,-0.12492185,-0.13500112,-0.018173227,0.08881303,-0.087529756,-0.8829889,-8.26875,-15.39375,-25.1625
1763129304422,-0.61914283,2.4502504,9.190233,-0.12492185,-0.13500112,-0.018173227,0.08700333,-0.08705007,-0.88324773,-8.26875,-15.39375,-25.1625
1763129304422,-0.50129634,2.449054,9.324232,-0.12492185,-0.13500112,-0.018173227,0.08700333,-0.08705007,-0.88324773,-8.26875,-15.39375,-25.1625
1763129304439,-0.50129634,2.449054,9.324232,-0.12492185,-0.13500112,-0.018173227,0.08700333,-0.08705007,-0.88324773,-7.9687505,-14.85,-25.968752
1763129304442,-0.50129634,2.449054,9.324232,-0.1547015,-0.10690133,-0.039553493,0.08700333,-0.08705007,-0.88324773,-7.9687505,-14.85,-25.968752
1763129304443,-0.50129634,2.449054,9.324232,-0.1547015,-0.10690133,-0.039553493,0.08530211,-0.086158715,-0.8836315,-7.9687505,-14.85,-25.968752
1763129304444,-0.68255264,2.3150558,9.400802,-0.1547015,-0.10690133,-0.039553493,0.08530211,-0.086158715,-0.8836315,-7.9687505,-14.85,-25.968752
1763129304458,-0.68255264,2.3150558,9.400802,-0.1547015,-0.10690133,-0.039553493,0.08530211,-0.086158715,-0.8836315,-8.56875,-15.000001,-26.118752
1763129304463,-0.75493556,2.3162522,9.542577,-0.1547015,-0.10690133,-0.039553493,0.08530211,-0.086158715,-0.8836315,-8.56875,-15.000001,-26.118752
1763129304464,-0.75493556,2.3162522,9.542577,-0.1547015,-0.10690133,-0.039553493,0.08342933,-0.085574076,-0.8839798,-8.56875,-15.000001,-26.118752
1763129304466,-0.75493556,2.3162522,9.542577,-0.13332124,-0.13912445,-0.031459536,0.08342933,-0.085574076,-0.8839798,-8.56875,-15.000001,-26.118752
1763129304477,-0.75493556,2.3162522,9.542577,-0.13332124,-0.13912445,-0.031459536,0.08342933,-0.085574076,-0.8839798,-10.40625,-15.58125,-25.143751
1763129304483,-0.75493556,2.3162522,9.542577,-0.077121675,-0.15042545,-0.042607818,0.08342933,-0.085574076,-0.8839798,-10.40625,-15.58125,-25.143751
1763129304484,-0.75493556,2.3162522,9.542577,-0.077121675,-0.15042545,-0.042607818,0.0817506,-0.08553734,-0.88432163,-10.40625,-15.58125,-25.143751
1763129304485,-0.6478567,2.3258235,9.603594,-0.077121675,-0.15042545,-0.042607818,0.0817506,-0.08553734,-0.88432163,-10.40625,-15.58125,-25.143751
1763129304498,-0.6478567,2.3258235,9.603594,-0.077121675,-0.15042545,-0.042607818,0.0817506,-0.08553734,-0.88432163,-8.34375,-14.925,-24.843752
1763129304505,-0.6478567,2.3258235,9.603594,-0.021074835,-0.13652828,-0.060322896,0.0817506,-0.08553734,-0.88432163,-8.34375,-14.925,-24.843752
1763129304506,-0.6478567,2.3258235,9.603594,-0.021074835,-0.13652828,-0.060322896,0.08045852,-0.085953005,-0.88470244,-8.34375,-14.925,-24.843752
1763129304506,-0.6041877,2.2145574,9.597013,-0.021074835,-0.13652828,-0.060322896,0.08045852,-0.085953005,-0.88470244,-8.34375,-14.925,-24.843752
1763129304518,-0.6041877,2.2145574,9.597013,-0.021074835,-0.13652828,-0.060322896,0.08045852,-0.085953005,-0.88470244,-9.712501,-14.2875,-25.725
1763129304526,-0.6041877,2.2145574,9.597013,-0.003817905,-0.083383046,-0.055435978,0.08045852,-0.085953005,-0.88470244,-9.712501,-14.2875,-25.725
1763129304527,-0.6203393,2.1355941,9.588638,-0.003817905,-0.083383046,-0.055435978,0.08045852,-0.085953005,-0.88470244,-9.712501,-14.2875,-25.725
1763129304539,-0.6203393,2.1355941,9.588638,-0.003817905,-0.083383046,-0.055435978,0.07970983,-0.08626973,-0.88504344,-9.712501,-14.2875,-25.725
1763129304539,-0.6203393,2.1355941,9.588638,-0.003817905,-0.083383046,-0.055435978,0.07970983,-0.08626973,-0.88504344,-10.06875,-15.337501,-24.656252
1763129304547,-0.6203393,2.1355941,9.588638,-0.015729768,-0.03451386,-0.030695954,0.07970983,-0.08626973,-0.88504344,-10.06875,-15.337501,-24.656252
1763129304548,-0.7495517,2.079961,9.512068,-0.015729768,-0.03451386,-0.030695954,0.07970983,-0.08626973,-0.88504344,-10.06875,-15.337501,-24.656252
1763129304557,-0.7495517,2.079961,9.512068,-0.015729768,-0.03451386,-0.030695954,0.07932948,-0.086248994,-0.8852578,-10.06875,-15.337501,-24.656252
1763129304558,-0.7495517,2.079961,9.512068,-0.015729768,-0.03451386,-0.030695954,0.07932948,-0.086248994,-0.8852578,-8.15625,-14.56875,-24.281252
1763129304567,-0.7495517,2.079961,9.512068,-0.032833982,-0.03970621,0.007941242,0.07932948,-0.086248994,-0.8852578,-8.15625,-14.56875,-24.281252
1763129304568,-0.7256235,2.1122642,9.378669,-0.032833982,-0.03970621,0.007941242,0.07932948,-0.086248994,-0.8852578,-8.15625,-14.56875,-24.281252
1763129304577,-0.7256235,2.1122642,9.378669,-0.032833982,-0.03970621,0.007941242,0.078819126,-0.08609794,-0.88528657,-8.15625,-14.56875,-24.281252
1763129304578,-0.7256235,2.1122642,9.378669,-0.032833982,-0.03970621,0.007941242,0.078819126,-0.08609794,-0.88528657,-10.275001,-16.5,-24.69375
1763129304589,-0.7256235,2.1122642,9.378669,-0.040622506,-0.07192933,0.019089524,0.078819126,-0.08609794,-0.88528657,-10.275001,-16.5,-24.69375
1763129304590,-0.5982057,2.2606192,9.359526,-0.040622506,-0.07192933,0.019089524,0.078819126,-0.08609794,-0.88528657,-10.275001,-16.5,-24.69375
1763129304598,-0.5982057,2.2606192,9.359526,-0.040622506,-0.07192933,0.019089524,0.078819126,-0.08609794,-0.88528657,-7.1625004,-15.150001,-25.2
1763129304610,-0.5982057,2.2606192,9.359526,-0.054366965,-0.09590577,0.00763581,0.078819126,-0.08609794,-0.88528657,-7.1625004,-15.150001,-25.2
1763129304611,-0.58683974,2.243271,9.364311,-0.054366965,-0.09590577,0.00763581,0.078819126,-0.08609794,-0.88528657,-7.1625004,-15.150001,-25.2
1763129304619,-0.58683974,2.243271,9.364311,-0.054366965,-0.09590577,0.00763581,0.078160875,-0.08588881,-0.8851474,-7.1625004,-15.150001,-25.2
1763129304620,-0.58683974,2.243271,9.364311,-0.054366965,-0.09590577,0.00763581,0.0772147,-0.08595757,-0.88487905,-7.1625004,-15.150001,-25.2
1763129304621,-0.58683974,2.243271,9.364311,-0.054366965,-0.09590577,0.00763581,0.0772147,-0.08595757,-0.88487905,-9.5625,-15.225,-25.593752
1763129304631,-0.58683974,2.243271,9.364311,-0.054061532,-0.10690133,0.0051923506,0.0772147,-0.08595757,-0.88487905,-9.5625,-15.225,-25.593752
1763129304632,-0.5922236,2.178665,9.505488,-0.054061532,-0.10690133,0.0051923506,0.0772147,-0.08595757,-0.88487905,-9.5625,-15.225,-25.593752
1763129304638,-0.5922236,2.178665,9.505488,-0.054061532,-0.10690133,0.0051923506,0.07617277,-0.08605844,-0.88464195,-9.5625,-15.225,-25.593752
1763129304639,-0.5922236,2.178665,9.505488,-0.054061532,-0.10690133,0.0051923506,0.07617277,-0.08605844,-0.88464195,-10.556251,-16.25625,-25.143751
1763129304652,-0.5922236,2.178665,9.505488,-0.04382955,-0.07925971,0.007941242,0.07617277,-0.08605844,-0.88464195,-10.556251,-16.25625,-25.143751
1763129304653,-0.506082,2.1708884,9.428918,-0.04382955,-0.07925971,0.007941242,0.07617277,-0.08605844,-0.88464195,-10.556251,-16.25625,-25.143751
1763129304657,-0.506082,2.1708884,9.428918,-0.04382955,-0.07925971,0.007941242,0.075350024,-0.08601147,-0.8845567,-10.556251,-16.25625,-25.143751
1763129304659,-0.506082,2.1708884,9.428918,-0.04382955,-0.07925971,0.007941242,0.075350024,-0.08601147,-0.8845567,-8.75625,-14.868751,-23.775002
1763129304673,-0.506082,2.1708884,9.428918,-0.04291325,-0.0754418,-0.0035124724,0.075350024,-0.08601147,-0.8845567,-8.75625,-14.868751,-23.775002
1763129304674,-0.5276174,2.1391835,9.462418,-0.04291325,-0.0754418,-0.0035124724,0.075350024,-0.08601147,-0.8845567,-8.75625,-14.868751,-23.775002
1763129304678,-0.5276174,2.1391835,9.462418,-0.04291325,-0.0754418,-0.0035124724,0.074475005,-0.08603817,-0.8845861,-8.75625,-14.868751,-23.775002
1763129304679,-0.5276174,2.1391835,9.462418,-0.04291325,-0.0754418,-0.0035124724,0.074475005,-0.08603817,-0.8845861,-8.1,-13.425,-24.112501
1763129304694,-0.5276174,2.1391835,9.462418,-0.043065965,-0.07437278,0.011300999,0.074475005,-0.08603817,-0.8845861,-8.1,-13.425,-24.112501
1763129304695,-0.509073,2.1870399,9.482158,-0.043065965,-0.07437278,0.011300999,0.074475005,-0.08603817,-0.8845861,-8.1,-13.425,-24.112501
1763129304699,-0.509073,2.1870399,9.482158,-0.043065965,-0.07437278,0.011300999,0.07362142,-0.085997544,-0.8845634,-8.1,-13.425,-24.112501
1763129304700,-0.509073,2.1870399,9.482158,-0.043065965,-0.07437278,0.011300999,0.07362142,-0.085997544,-0.8845634,-9.243751,-13.368751,-24.31875
1763129304715,-0.509073,2.1870399,9.482158,-0.03924806,-0.088269964,0.0027488915,0.07362142,-0.085997544,-0.8845634,-9.243751,-13.368751,-24.31875
1763129304716,-0.39421752,2.2827528,9.556933,-0.03924806,-0.088269964,0.0027488915,0.07362142,-0.085997544,-0.8845634,-9.243751,-13.368751,-24.31875
1763129304718,-0.39421752,2.2827528,9.556933,-0.03924806,-0.088269964,0.0027488915,0.072720595,-0.086112924,-0.8844697,-9.243751,-13.368751,-24.31875
1763129304718,-0.39421752,2.2827528,9.556933,-0.03924806,-0.088269964,0.0027488915,0.072720595,-0.086112924,-0.8844697,-10.2375,-15.20625,-23.8125
1763129304736,-0.39421752,2.2827528,9.556933,-0.04046979,-0.066126116,-0.014355322,0.072720595,-0.086112924,-0.8844697,-10.2375,-15.20625,-23.8125
1763129304737,-0.4755735,2.1355941,9.610772,-0.04046979,-0.066126116,-0.014355322,0.072720595,-0.086112924,-0.8844697,-10.2375,-15.20625,-23.8125
1763129304739,-0.4755735,2.1355941,9.610772,-0.04046979,-0.066126116,-0.014355322,0.07194244,-0.08630616,-0.8844038,-10.2375,-15.20625,-23.8125
1763129304740,-0.4755735,2.1355941,9.610772,-0.04046979,-0.066126116,-0.014355322,0.07194244,-0.08630616,-0.8844038,-11.19375,-16.237501,-24.900002
1763129304757,-0.4755735,2.1355941,9.610772,-0.03649917,-0.046731155,0.0074830935,0.07194244,-0.08630616,-0.8844038,-11.19375,-16.237501,-24.900002
1763129304758,-0.4755735,2.1355941,9.610772,-0.03649917,-0.046731155,0.0074830935,0.07132583,-0.086188234,-0.88444495,-11.19375,-16.237501,-24.900002
1763129304759,-0.4755735,2.1355941,9.610772,-0.03649917,-0.046731155,0.0074830935,0.07132583,-0.086188234,-0.88444495,-7.9125004,-13.70625,-25.050001
1763129304760,-0.49112684,2.0949163,9.587442,-0.03649917,-0.046731155,0.0074830935,0.07132583,-0.086188234,-0.88444495,-7.9125004,-13.70625,-25.050001
1763129304779,-0.49112684,2.0949163,9.587442,-0.03649917,-0.046731155,0.0074830935,0.070563555,-0.08616836,-0.8845878,-7.9125004,-13.70625,-25.050001
1763129304780,-0.49112684,2.0949163,9.587442,-0.029626941,-0.0697913,-0.0074830935,0.070563555,-0.08616836,-0.8845878,-7.9125004,-13.70625,-25.050001
1763129304781,-0.49112684,2.0949163,9.587442,-0.029626941,-0.0697913,-0.0074830935,0.070563555,-0.08616836,-0.8845878,-8.71875,-14.212501,-24.54375
1763129304782,-0.3589234,2.2289143,9.613165,-0.029626941,-0.0697913,-0.0074830935,0.070563555,-0.08616836,-0.8845878,-8.71875,-14.212501,-24.54375
1763129304797,-0.3589234,2.2289143,9.613165,-0.029626941,-0.0697913,-0.0074830935,0.070563555,-0.08616836,-0.8845878,-9.01875,-14.625001,-26.04375
1763129304799,-0.43669012,2.1326032,9.6275215,-0.029626941,-0.0697913,-0.0074830935,0.070563555,-0.08616836,-0.8845878,-9.01875,-14.625001,-26.04375
1763129304800,-0.43669012,2.1326032,9.6275215,-0.025198173,-0.050396346,-0.03848448,0.070563555,-0.08616836,-0.8845878,-9.01875,-14.625001,-26.04375
1763129304800,-0.43669012,2.1326032,9.6275215,-0.025198173,-0.050396346,-0.03848448,0.069953054,-0.086362794,-0.88476527,-9.01875,-14.625001,-26.04375
1763129304818,-0.43669012,2.1326032,9.6275215,-0.025198173,-0.050396346,-0.03848448,0.069953054,-0.086362794,-0.88476527,-7.8750005,-13.856251,-25.29375
1763129304821,-0.57906306,2.0207388,9.573085,-0.025198173,-0.050396346,-0.03848448,0.069953054,-0.086362794,-0.88476527,-7.8750005,-13.856251,-25.29375
1763129304825,-0.57906306,2.0207388,9.573085,-0.025198173,-0.050396346,-0.03848448,0.06941896,-0.08642764,-0.8849615,-7.8750005,-13.856251,-25.29375
1763129304826,-0.57906306,2.0207388,9.573085,-0.018173227,-0.047952887,-0.016951498,0.06941896,-0.08642764,-0.8849615,-7.8750005,-13.856251,-25.29375
1763129304838,-0.57906306,2.0207388,9.573085,-0.018173227,-0.047952887,-0.016951498,0.06941896,-0.08642764,-0.8849615,-9.375,-14.212501,-24.431252
1763129304841,-0.57906306,2.0207388,9.573085,-0.018173227,-0.047952887,-0.016951498,0.06926273,-0.08618217,-0.88492435,-9.375,-14.212501,-24.431252
1763129304842,-0.51505506,2.032703,9.561719,-0.018173227,-0.047952887,-0.016951498,0.06926273,-0.08618217,-0.88492435,-9.375,-14.212501,-24.431252
1763129304843,-0.51505506,2.032703,9.561719,-0.01282816,-0.025809037,0.01282816,0.06926273,-0.08618217,-0.88492435,-9.375,-14.212501,-24.431252
1763129304858,-0.51505506,2.032703,9.561719,-0.01282816,-0.025809037,0.01282816,0.06926273,-0.08618217,-0.88492435,-10.650001,-17.53125,-21.806252
1763129304864,-0.51505506,2.032703,9.561719,-0.01282816,-0.025809037,0.01282816,0.06916931,-0.085926525,-0.88492346,-10.650001,-17.53125,-21.806252
1763129304865,-0.51505506,2.032703,9.561719,-0.014966187,-0.0059559317,0.021532983,0.06916931,-0.085926525,-0.88492346,-10.650001,-17.53125,-21.806252
1763129304866,-0.43728834,2.0901306,9.550952,-0.014966187,-0.0059559317,0.021532983,0.06916931,-0.085926525,-0.88492346,-10.650001,-17.53125,-21.806252
1763129304878,-0.43728834,2.0901306,9.550952,-0.014966187,-0.0059559317,0.021532983,0.06916931,-0.085926525,-0.88492346,-9.525001,-13.931251,-25.7625
1763129304882,-0.43728834,2.0901306,9.550952,-0.015729768,-0.022143848,0.022754714,0.06916931,-0.085926525,-0.88492346,-9.525001,-13.931251,-25.7625
1763129304883,-0.4755735,2.1427727,9.603594,-0.015729768,-0.022143848,0.022754714,0.06916931,-0.085926525,-0.88492346,-9.525001,-13.931251,-25.7625
1763129304884,-0.4755735,2.1427727,9.603594,-0.015729768,-0.022143848,0.022754714,0.0688697,-0.08588702,-0.8848554,-9.525001,-13.931251,-25.7625
1763129304898,-0.4755735,2.1427727,9.603594,-0.015729768,-0.022143848,0.022754714,0.0688697,-0.08588702,-0.8848554,-10.743751,-15.975,-24.225
1763129304905,-0.5072784,2.0470598,9.572487,-0.015729768,-0.022143848,0.022754714,0.0688697,-0.08588702,-0.8848554,-10.743751,-15.975,-24.225
1763129304906,-0.5072784,2.0470598,9.572487,-0.020922119,-0.01725693,0.024587307,0.0688697,-0.08588702,-0.8848554,-10.743751,-15.975,-24.225
1763129304907,-0.5072784,2.0470598,9.572487,-0.020922119,-0.01725693,0.024587307,0.068701774,-0.08579985,-0.8846819,-10.743751,-15.975,-24.225
1763129304917,-0.5072784,2.0470598,9.572487,-0.020922119,-0.01725693,0.024587307,0.068701774,-0.08579985,-0.8846819,-9.806251,-15.431251,-24.993752
1763129304925,-0.5072784,2.0470598,9.572487,-0.020922119,-0.01725693,0.024587307,0.06936917,-0.08534508,-0.88465303,-9.806251,-15.431251,-24.993752
1763129304926,-0.5072784,2.0470598,9.572487,-0.002290743,0.07116575,0.021532983,0.06936917,-0.08534508,-0.88465303,-9.806251,-15.431251,-24.993752
1763129304927,-0.50129634,2.0081763,9.549157,-0.002290743,0.07116575,0.021532983,0.06936917,-0.08534508,-0.88465303,-9.806251,-15.431251,-24.993752
1763129304938,-0.50129634,2.0081763,9.549157,-0.002290743,0.07116575,0.021532983,0.06936917,-0.08534508,-0.88465303,-11.231251,-17.025002,-23.175001
1763129304948,-0.58983076,2.1834507,9.466006,-0.002290743,0.07116575,0.021532983,0.06936917,-0.08534508,-0.88465303,-11.231251,-17.025002,-23.175001
1763129304950,-0.58983076,2.1834507,9.466006,0.12553272,0.102014415,-0.009162972,0.06936917,-0.08534508,-0.88465303,-11.231251,-17.025002,-23.175001
1763129304958,-0.58983076,2.1834507,9.466006,0.12553272,0.102014415,-0.009162972,0.07083964,-0.08586956,-0.88481003,-11.231251,-17.025002,-23.175001
1763129304959,-0.58983076,2.1834507,9.466006,0.12553272,0.102014415,-0.009162972,0.07083964,-0.08586956,-0.88481003,-11.231251,-17.025002,-23.175001
1763129304966,-0.58983076,2.1834507,9.466006,0.098654665,-0.029474225,0.003817905,0.07083964,-0.08586956,-0.88481003,-11.231251,-17.025002,-23.175001
1763129304967,-0.45583272,2.2241287,9.070593,0.098654665,-0.029474225,0.003817905,0.07083964,-0.08586956,-0.88481003,-11.231251,-17.025002,-23.175001
1763129304977,-0.45583272,2.2241287,9.070593,0.098654665,-0.029474225,0.003817905,0.07134715,-0.08686602,-0.88436854,-11.231251,-17.025002,-23.175001
1763129304978,-0.45583272,2.2241287,9.070593,0.098654665,-0.029474225,0.003817905,0.07134715,-0.08686602,-0.88436854,-10.575001,-16.237501,-23.79375
1763129304989,-0.45583272,2.2241287,9.070593,-0.170584,-0.114689864,0.026725333,0.07134715,-0.08686602,-0.88436854,-10.575001,-16.237501,-23.79375
1763129304990,-0.44207397,2.027319,8.82832,-0.170584,-0.114689864,0.026725333,0.07134715,-0.08686602,-0.88436854,-10.575001,-16.237501,-23.79375
1763129304998,-0.44207397,2.027319,8.82832,-0.170584,-0.114689864,0.026725333,0.069776714,-0.08606986,-0.8838918,-10.575001,-16.237501,-23.79375
1763129304998,-0.44207397,2.027319,8.82832,-0.170584,-0.114689864,0.026725333,0.069776714,-0.08606986,-0.8838918,-9.31875,-13.05,-23.6625
1763129305017,-0.44207397,2.027319,8.82832,-0.38515025,-0.113926284,0.06459895,0.069776714,-0.08606986,-0.8838918,-9.31875,-13.05,-23.6625
1763129305018,-0.20877378,2.1571295,9.244072,-0.38515025,-0.113926284,0.06459895,0.069776714,-0.08606986,-0.8838918,-9.31875,-13.05,-23.6625
1763129305019,-0.20877378,2.1571295,9.244072,-0.38515025,-0.113926284,0.06459895,0.069776714,-0.08606986,-0.8838918,-10.6875,-15.618751,-23.081251
1763129305019,-0.20877378,2.1571295,9.244072,-0.38515025,-0.113926284,0.06459895,0.067102104,-0.08320225,-0.88356197,-10.6875,-15.618751,-23.081251
