timestamp,accX,accY,accZ,gyroX,gyroY,gyroZ,rotX,rotY,rotZ,magX,magY,magZ
1763129278519,-4.834698,6.878767,5.1906304,0.46318823,-0.3839285,0.4017963,0.5097147,-0.1474361,-0.55259216,16.087502,-30.056252,-29.025002
1763129278520,-4.834698,6.878767,5.1906304,0.46318823,-0.3839285,0.4017963,0.5093049,-0.15622728,-0.5537091,16.087502,-30.056252,-29.025002
1763129278520,-3.970889,8.052446,3.0867412,0.46318823,-0.3839285,0.4017963,0.5093049,-0.15622728,-0.5537091,16.087502,-30.056252,-29.025002
1763129278520,-3.970889,8.052446,3.0867412,0.46318823,-0.3839285,0.4017963,0.5093049,-0.15622728,-0.5537091,12.375001,-34.237503,-24.468752
1763129278539,-3.970889,8.052446,3.0867412,0.46318823,-0.3839285,0.4017963,0.50699675,-0.16215529,-0.5539484,12.375001,-34.237503,-24.468752
1763129278539,-3.970889,8.052446,3.0867412,0.18310672,-0.61147565,0.27198756,0.50699675,-0.16215529,-0.5539484,12.375001,-34.237503,-24.468752
1763129278540,-3.970889,8.052446,3.0867412,0.18310672,-0.61147565,0.27198756,0.50699675,-0.16215529,-0.5539484,12.13125,-31.3875,-21.806252
1763129278540,-3.1890345,8.837891,2.30369,0.18310672,-0.61147565,0.27198756,0.50699675,-0.16215529,-0.5539484,12.13125,-31.3875,-21.806252
1763129278557,-3.1890345,8.837891,2.30369,0.18310672,-0.61147565,0.27198756,0.50699675,-0.16215529,-0.5539484,10.950001,-35.04375,-23.00625
1763129278559,-3.1890345,8.837891,2.30369,-0.28359398,-0.65866494,0.09544762,0.50699675,-0.16215529,-0.5539484,10.950001,-35.04375,-23.00625
1763129278559,-3.1890345,8.837891,2.30369,-0.28359398,-0.65866494,0.09544762,0.50211966,-0.16373517,-0.55457145,10.950001,-35.04375,-23.00625
1763129278560,-3.176472,8.478369,3.0179477,-0.28359398,-0.65866494,0.09544762,0.50211966,-0.16373517,-0.55457145,10.950001,-35.04375,-23.00625
1763129278577,-3.176472,8.478369,3.0179477,-0.28359398,-0.65866494,0.09544762,0.50211966,-0.16373517,-0.55457145,9.7875,-33.393753,-23.79375
1763129278580,-3.176472,8.478369,3.0179477,-0.5896372,-0.607505,0.0377209,0.50211966,-0.16373517,-0.55457145,9.7875,-33.393753,-23.79375
1763129278581,-3.2554352,7.960323,4.034299,-0.5896372,-0.607505,0.0377209,0.50211966,-0.16373517,-0.55457145,9.7875,-33.393753,-23.79375
1763129278582,-3.2554352,7.960323,4.034299,-0.5896372,-0.607505,0.0377209,0.49523056,-0.16344653,-0.5566479,9.7875,-33.393753,-23.79375
1763129278598,-3.2554352,7.960323,4.034299,-0.5896372,-0.607505,0.0377209,0.49523056,-0.16344653,-0.5566479,13.875001,-31.500002,-26.868752
1763129278601,-3.2554352,7.960323,4.034299,-0.63316137,-0.56169015,0.07773254,0.49523056,-0.16344653,-0.5566479,13.875001,-31.500002,-26.868752
1763129278602,-3.2554352,7.960323,4.034299,-0.63316137,-0.56169015,0.07773254,0.48773018,-0.16360301,-0.55954933,13.875001,-31.500002,-26.868752
1763129278602,-3.4953158,7.8071823,4.860421,-0.63316137,-0.56169015,0.07773254,0.48773018,-0.16360301,-0.55954933,13.875001,-31.500002,-26.868752
1763129278618,-3.4953158,7.8071823,4.860421,-0.63316137,-0.56169015,0.07773254,0.48773018,-0.16360301,-0.55954933,12.637501,-31.800001,-26.85
1763129278622,-3.4953158,7.8071823,4.860421,-0.4356993,-0.52961975,0.18524474,0.48773018,-0.16360301,-0.55954933,12.637501,-31.800001,-26.85
1763129278623,-3.3786657,7.856235,5.1942196,-0.4356993,-0.52961975,0.18524474,0.48773018,-0.16360301,-0.55954933,12.637501,-31.800001,-26.85
1763129278624,-3.3786657,7.856235,5.1942196,-0.4356993,-0.52961975,0.18524474,0.48121825,-0.16578819,-0.562143,12.637501,-31.800001,-26.85
1763129278637,-3.3786657,7.856235,5.1942196,-0.4356993,-0.52961975,0.18524474,0.48121825,-0.16578819,-0.562143,12.431251,-31.35,-26.41875
1763129278643,-3.3786657,7.856235,5.1942196,-0.16569707,-0.50121456,0.22266021,0.48121825,-0.16578819,-0.562143,12.431251,-31.35,-26.41875
1763129278644,-3.080759,8.0715885,5.2755756,-0.16569707,-0.50121456,0.22266021,0.48121825,-0.16578819,-0.562143,12.431251,-31.35,-26.41875
1763129278645,-3.080759,8.0715885,5.2755756,-0.16569707,-0.50121456,0.22266021,0.47652915,-0.16969074,-0.5640611,12.431251,-31.35,-26.41875
1763129278658,-3.080759,8.0715885,5.2755756,-0.16569707,-0.50121456,0.22266021,0.47652915,-0.16969074,-0.5640611,11.775001,-32.49375,-29.04375
1763129278664,-3.080759,8.0715885,5.2755756,-0.16569707,-0.50121456,0.22266021,0.4735998,-0.17282435,-0.5652652,11.775001,-32.49375,-29.04375
1763129278666,-3.080759,8.0715885,5.2755756,-0.054825112,-0.35460702,0.1565341,0.4735998,-0.17282435,-0.5652652,11.775001,-32.49375,-29.04375
1763129278667,-2.8253253,8.299505,5.198407,-0.054825112,-0.35460702,0.1565341,0.4735998,-0.17282435,-0.5652652,11.775001,-32.49375,-29.04375
1763129278678,-2.8253253,8.299505,5.198407,-0.054825112,-0.35460702,0.1565341,0.4735998,-0.17282435,-0.5652652,10.63125,-33.54375,-27.281252
1763129278685,-2.8253253,8.299505,5.198407,-0.10399973,-0.1386663,0.051618073,0.4735998,-0.17282435,-0.5652652,10.63125,-33.54375,-27.281252
1763129278686,-2.6883361,8.371888,5.0536413,-0.10399973,-0.1386663,0.051618073,0.4735998,-0.17282435,-0.5652652,10.63125,-33.54375,-27.281252
1763129278699,-2.6883361,8.371888,5.0536413,-0.10399973,-0.1386663,0.051618073,0.4719023,-0.17348029,-0.56580347,10.63125,-33.54375,-27.281252
1763129278699,-2.6883361,8.371888,5.0536413,-0.10399973,-0.1386663,0.051618073,0.4719023,-0.17348029,-0.56580347,11.64375,-31.06875,-27.7875
1763129278706,-2.6883361,8.371888,5.0536413,-0.14569125,-0.01802051,-0.037262753,0.4719023,-0.17348029,-0.56580347,11.64375,-31.06875,-27.7875
1763129278707,-2.8773692,8.229515,4.837091,-0.14569125,-0.01802051,-0.037262753,0.4719023,-0.17348029,-0.56580347,11.64375,-31.06875,-27.7875
1763129278719,-2.8773692,8.229515,4.837091,-0.14569125,-0.01802051,-0.037262753,0.47089085,-0.17246543,-0.5661209,11.64375,-31.06875,-27.7875
1763129278722,-2.8773692,8.229515,4.837091,-0.14569125,-0.01802051,-0.037262753,0.47089085,-0.17246543,-0.5661209,12.075001,-30.6375,-27.468752
1763129278727,-2.8773692,8.229515,4.837091,-0.0923933,-0.07147118,-0.05146536,0.47089085,-0.17246543,-0.5661209,12.075001,-30.6375,-27.468752
1763129278728,-3.1998022,8.079366,4.7694936,-0.0923933,-0.07147118,-0.05146536,0.47089085,-0.17246543,-0.5661209,12.075001,-30.6375,-27.468752
1763129278737,-3.1998022,8.079366,4.7694936,-0.0923933,-0.07147118,-0.05146536,0.47002047,-0.17198984,-0.5666494,12.075001,-30.6375,-27.468752
1763129278738,-3.1998022,8.079366,4.7694936,-0.0923933,-0.07147118,-0.05146536,0.47002047,-0.17198984,-0.5666494,11.475,-30.7875,-27.618752
1763129278748,-3.1998022,8.079366,4.7694936,-0.041844238,-0.10445788,-0.0029016077,0.47002047,-0.17198984,-0.5666494,11.475,-30.7875,-27.618752
1763129278749,-3.2841492,7.8580294,4.618148,-0.041844238,-0.10445788,-0.0029016077,0.47002047,-0.17198984,-0.5666494,11.475,-30.7875,-27.618752
1763129278757,-3.2841492,7.8580294,4.618148,-0.041844238,-0.10445788,-0.0029016077,0.46921295,-0.17232065,-0.5670966,11.475,-30.7875,-27.618752
1763129278758,-3.2841492,7.8580294,4.618148,-0.041844238,-0.10445788,-0.0029016077,0.46921295,-0.17232065,-0.5670966,8.962501,-34.256252,-26.831251
1763129278769,-3.2841492,7.8580294,4.618148,-0.054825112,-0.14401138,0.06780599,0.46921295,-0.17232065,-0.5670966,8.962501,-34.256252,-26.831251
1763129278770,-3.1758738,7.9022965,4.599005,-0.054825112,-0.14401138,0.06780599,0.46921295,-0.17232065,-0.5670966,8.962501,-34.256252,-26.831251
1763129278778,-3.1758738,7.9022965,4.599005,-0.054825112,-0.14401138,0.06780599,0.4679683,-0.17319055,-0.5673282,8.962501,-34.256252,-26.831251
1763129278779,-3.1758738,7.9022965,4.599005,-0.054825112,-0.14401138,0.06780599,0.4679683,-0.17319055,-0.5673282,9.975,-31.125002,-26.456251
1763129278790,-3.1758738,7.9022965,4.599005,-0.08460477,-0.13744457,0.07651082,0.4679683,-0.17319055,-0.5673282,9.975,-31.125002,-26.456251
1763129278791,-2.9796624,7.96451,4.581059,-0.08460477,-0.13744457,0.07651082,0.4679683,-0.17319055,-0.5673282,9.975,-31.125002,-26.456251
1763129278798,-2.9796624,7.96451,4.581059,-0.08460477,-0.13744457,0.07651082,0.46656972,-0.17383054,-0.56740415,9.975,-31.125002,-26.456251
1763129278799,-2.9796624,7.96451,4.581059,-0.08460477,-0.13744457,0.07651082,0.46656972,-0.17383054,-0.56740415,11.493751,-30.150002,-27.6375
1763129278811,-2.9796624,7.96451,4.581059,-0.115911596,-0.1310305,0.06368265,0.46656972,-0.17383054,-0.56740415,11.493751,-30.150002,-27.6375
1763129278812,-2.8809586,7.9860454,4.7282176,-0.115911596,-0.1310305,0.06368265,0.46656972,-0.17383054,-0.56740415,11.493751,-30.150002,-27.6375
1763129278818,-2.8809586,7.9860454,4.7282176,-0.115911596,-0.1310305,0.06368265,0.4650511,-0.17410976,-0.5674167,11.493751,-30.150002,-27.6375
1763129278819,-2.8809586,7.9860454,4.7282176,-0.115911596,-0.1310305,0.06368265,0.4650511,-0.17410976,-0.5674167,12.6,-29.8875,-27.975
1763129278832,-2.8809586,7.9860454,4.7282176,-0.09346231,-0.14019346,0.06368265,0.4650511,-0.17410976,-0.5674167,12.6,-29.8875,-27.975
1763129278833,-2.8540392,7.749156,4.551149,-0.09346231,-0.14019346,0.06368265,0.4650511,-0.17410976,-0.5674167,12.6,-29.8875,-27.975
1763129278837,-2.8540392,7.749156,4.551149,-0.09346231,-0.14019346,0.06368265,0.4650511,-0.17410976,-0.5674167,11.962501,-29.868752,-27.712502
1763129278839,-2.8540392,7.749156,4.551149,-0.09346231,-0.14019346,0.06368265,0.46358535,-0.17464437,-0.56750184,11.962501,-29.868752,-27.712502
1763129278853,-3.034099,7.856235,3.5617166,-0.09346231,-0.14019346,0.06368265,0.46358535,-0.17464437,-0.56750184,11.962501,-29.868752,-27.712502
1763129278854,-3.034099,7.856235,3.5617166,-0.09468404,-0.6656899,0.07040217,0.46358535,-0.17464437,-0.56750184,11.962501,-29.868752,-27.712502
1763129278859,-3.034099,7.856235,3.5617166,-0.09468404,-0.6656899,0.07040217,0.46358535,-0.17464437,-0.56750184,10.106251,-31.743752,-28.218752
1763129278860,-3.034099,7.856235,3.5617166,-0.09468404,-0.6656899,0.07040217,0.4589962,-0.17879206,-0.57005745,10.106251,-31.743752,-28.218752
1763129278874,-3.034099,7.856235,3.5617166,-0.22678354,-0.4094321,0.09483676,0.4589962,-0.17879206,-0.57005745,10.106251,-31.743752,-28.218752
1763129278875,-3.00718,8.017152,4.2017965,-0.22678354,-0.4094321,0.09483676,0.4589962,-0.17879206,-0.57005745,10.106251,-31.743752,-28.218752
1763129278879,-3.00718,8.017152,4.2017965,-0.22678354,-0.4094321,0.09483676,0.4554592,-0.17985289,-0.5703841,10.106251,-31.743752,-28.218752
1763129278880,-3.00718,8.017152,4.2017965,-0.22678354,-0.4094321,0.09483676,0.4554592,-0.17985289,-0.5703841,11.55,-29.6625,-28.95
1763129278895,-3.00718,8.017152,4.2017965,-0.42592546,-1.1409427,0.1594357,0.4554592,-0.17985289,-0.5703841,11.55,-29.6625,-28.95
1763129278896,-2.4681966,7.6109705,2.6476583,-0.42592546,-1.1409427,0.1594357,0.4554592,-0.17985289,-0.5703841,11.55,-29.6625,-28.95
1763129278898,-2.4681966,7.6109705,2.6476583,-0.42592546,-1.1409427,0.1594357,0.44584706,-0.1853256,-0.57448393,11.55,-29.6625,-28.95
1763129278899,-2.4681966,7.6109705,2.6476583,-0.42592546,-1.1409427,0.1594357,0.44584706,-0.1853256,-0.57448393,9.731251,-31.837502,-28.0125
1763129278915,-2.4681966,7.6109705,2.6476583,-0.6197223,-1.0471749,0.08491021,0.44584706,-0.1853256,-0.57448393,9.731251,-31.837502,-28.0125
1763129278916,-2.8205397,8.363513,5.529215,-0.6197223,-1.0471749,0.08491021,0.44584706,-0.1853256,-0.57448393,9.731251,-31.837502,-28.0125
1763129278918,-2.8205397,8.363513,5.529215,-0.6197223,-1.0471749,0.08491021,0.43617752,-0.18782534,-0.577357,9.731251,-31.837502,-28.0125
1763129278920,-2.8205397,8.363513,5.529215,-0.6197223,-1.0471749,0.08491021,0.43617752,-0.18782534,-0.577357,10.89375,-29.643751,-27.487501
1763129278938,-2.8205397,8.363513,5.529215,-0.6197223,-1.0471749,0.08491021,0.42744845,-0.19112512,-0.5812262,10.89375,-29.643751,-27.487501
1763129278939,-2.8205397,8.363513,5.529215,-0.49373147,-0.8655954,0.10415245,0.42744845,-0.19112512,-0.5812262,10.89375,-29.643751,-27.487501
1763129278940,-2.8205397,8.363513,5.529215,-0.49373147,-0.8655954,0.10415245,0.42744845,-0.19112512,-0.5812262,10.762501,-28.706251,-29.1375
1763129278941,-1.878964,7.954939,5.6530433,-0.49373147,-0.8655954,0.10415245,0.42744845,-0.19112512,-0.5812262,10.762501,-28.706251,-29.1375
1763129278958,-1.878964,7.954939,5.6530433,-0.26908594,-0.8188642,-0.043218683,0.42744845,-0.19112512,-0.5812262,10.762501,-28.706251,-29.1375
1763129278959,-1.6013966,7.576873,5.361717,-0.26908594,-0.8188642,-0.043218683,0.42744845,-0.19112512,-0.5812262,10.762501,-28.706251,-29.1375
1763129278960,-1.6013966,7.576873,5.361717,-0.26908594,-0.8188642,-0.043218683,0.42067027,-0.1949496,-0.5854362,10.762501,-28.706251,-29.1375
1763129278962,-1.6013966,7.576873,5.361717,-0.26908594,-0.8188642,-0.043218683,0.42067027,-0.1949496,-0.5854362,7.6125,-29.118752,-27.843752
1763129278978,-1.6013966,7.576873,5.361717,-0.26908594,-0.8188642,-0.043218683,0.42067027,-0.1949496,-0.5854362,7.7812505,-30.056252,-29.212502
1763129278979,-1.6013966,7.576873,5.361717,-0.21074834,-1.1759146,-0.04856375,0.42067027,-0.1949496,-0.5854362,7.7812505,-30.056252,-29.212502
1763129278980,-1.6013966,7.576873,5.361717,-0.21074834,-1.1759146,-0.04856375,0.41211873,-0.20152617,-0.5909439,7.7812505,-30.056252,-29.212502
1763129278981,-2.161317,7.4787674,4.5206404,-0.21074834,-1.1759146,-0.04856375,0.41211873,-0.20152617,-0.5909439,7.7812505,-30.056252,-29.212502
1763129278997,-2.161317,7.4787674,4.5206404,-0.21074834,-1.1759146,-0.04856375,0.41211873,-0.20152617,-0.5909439,6.7125,-29.812502,-28.66875
1763129278999,-2.161317,7.4787674,4.5206404,-0.4271472,-1.3509275,0.09117157,0.41211873,-0.20152617,-0.5909439,6.7125,-29.812502,-28.66875
1763129279000,-2.568695,7.559525,4.226921,-0.4271472,-1.3509275,0.09117157,0.41211873,-0.20152617,-0.5909439,6.7125,-29.812502,-28.66875
1763129279001,-2.568695,7.559525,4.226921,-0.4271472,-1.3509275,0.09117157,0.40106437,-0.20809145,-0.59591484,6.7125,-29.812502,-28.66875
1763129279018,-2.568695,7.559525,4.226921,-0.4271472,-1.3509275,0.09117157,0.40106437,-0.20809145,-0.59591484,6.3750005,-30.056252,-28.85625
1763129279021,-2.568695,7.559525,4.226921,-0.7177661,-1.3706279,0.23961172,0.40106437,-0.20809145,-0.59591484,6.3750005,-30.056252,-28.85625
1763129279023,-2.568695,7.559525,4.226921,-0.7177661,-1.3706279,0.23961172,0.38775405,-0.21330592,-0.6000349,6.3750005,-30.056252,-28.85625
1763129279025,-2.1631117,7.7946196,5.643472,-0.7177661,-1.3706279,0.23961172,0.38775405,-0.21330592,-0.6000349,6.3750005,-30.056252,-28.85625
1763129279038,-2.1631117,7.7946196,5.643472,-0.7177661,-1.3706279,0.23961172,0.38775405,-0.21330592,-0.6000349,6.0937505,-28.2,-29.8875
1763129279042,-2.1631117,7.7946196,5.643472,-0.82359844,-1.0109812,0.21899502,0.38775405,-0.21330592,-0.6000349,6.0937505,-28.2,-29.8875
1763129279043,-2.1631117,7.7946196,5.643472,-0.82359844,-1.0109812,0.21899502,0.37546977,-0.21571273,-0.60381925,6.0937505,-28.2,-29.8875
1763129279044,-1.2873386,7.8149586,6.782456,-0.82359844,-1.0109812,0.21899502,0.37546977,-0.21571273,-0.60381925,6.0937505,-28.2,-29.8875
1763129279058,-1.2873386,7.8149586,6.782456,-0.82359844,-1.0109812,0.21899502,0.37546977,-0.21571273,-0.60381925,3.2625,-29.812502,-28.331251
1763129279063,-0.79920274,7.683952,5.92762,-0.82359844,-1.0109812,0.21899502,0.37546977,-0.21571273,-0.60381925,3.2625,-29.812502,-28.331251
1763129279064,-0.79920274,7.683952,5.92762,-0.74189526,-1.127809,0.047494736,0.37546977,-0.21571273,-0.60381925,3.2625,-29.812502,-28.331251
1763129279065,-0.79920274,7.683952,5.92762,-0.74189526,-1.127809,0.047494736,0.36288452,-0.21917698,-0.60961163,3.2625,-29.812502,-28.331251
1763129279079,-0.79920274,7.683952,5.92762,-0.74189526,-1.127809,0.047494736,0.36288452,-0.21917698,-0.60961163,3.35625,-28.66875,-30.431252
1763129279084,-0.79920274,7.683952,5.92762,-0.74189526,-1.127809,0.047494736,0.3464167,-0.2267694,-0.61845726,3.35625,-28.66875,-30.431252
1763129279085,-0.79920274,7.683952,5.92762,-0.72723454,-1.8744385,-0.16065744,0.3464167,-0.2267694,-0.61845726,3.35625,-28.66875,-30.431252
1763129279087,-1.0911272,6.9744797,4.141378,-0.72723454,-1.8744385,-0.16065744,0.3464167,-0.2267694,-0.61845726,3.35625,-28.66875,-30.431252
1763129279098,-1.0911272,6.9744797,4.141378,-0.72723454,-1.8744385,-0.16065744,0.3464167,-0.2267694,-0.61845726,2.11875,-28.1625,-29.41875
1763129279105,-1.0911272,6.9744797,4.141378,-0.87552196,-1.8971933,-0.18738277,0.3464167,-0.2267694,-0.61845726,2.11875,-28.1625,-29.41875
1763129279106,-1.0911272,6.9744797,4.141378,-0.87552196,-1.8971933,-0.18738277,0.32938698,-0.23284541,-0.6264453,2.11875,-28.1625,-29.41875
1763129279107,-2.178665,7.9860454,7.6869426,-0.87552196,-1.8971933,-0.18738277,0.32938698,-0.23284541,-0.6264453,2.11875,-28.1625,-29.41875
1763129279120,-2.178665,7.9860454,7.6869426,-0.87552196,-1.8971933,-0.18738277,0.32938698,-0.23284541,-0.6264453,0.3,-28.087502,-28.462502
1763129279128,-2.178665,7.9860454,7.6869426,-0.866359,-1.1976004,-0.07956514,0.32938698,-0.23284541,-0.6264453,0.3,-28.087502,-28.462502
1763129279129,-0.7962117,6.7782683,7.385447,-0.866359,-1.1976004,-0.07956514,0.32938698,-0.23284541,-0.6264453,0.3,-28.087502,-28.462502
1763129279139,-0.7962117,6.7782683,7.385447,-0.866359,-1.1976004,-0.07956514,0.31574056,-0.2350787,-0.6334191,0.3,-28.087502,-28.462502
1763129279139,-0.7962117,6.7782683,7.385447,-0.866359,-1.1976004,-0.07956514,0.31574056,-0.2350787,-0.6334191,-1.4625001,-28.987501,-29.493752
1763129279147,-0.7962117,6.7782683,7.385447,-0.74220073,-0.8940006,0.032833982,0.31574056,-0.2350787,-0.6334191,-1.4625001,-28.987501,-29.493752
1763129279148,-0.5395815,6.256633,7.563114,-0.74220073,-0.8940006,0.032833982,0.31574056,-0.2350787,-0.6334191,-1.4625001,-28.987501,-29.493752
1763129279157,-0.5395815,6.256633,7.563114,-0.74220073,-0.8940006,0.032833982,0.3042282,-0.23666267,-0.6385506,-1.4625001,-28.987501,-29.493752
1763129279158,-0.5395815,6.256633,7.563114,-0.74220073,-0.8940006,0.032833982,0.3042282,-0.23666267,-0.6385506,-1.95,-27.6375,-28.331251
1763129279168,-0.5395815,6.256633,7.563114,-0.5931497,-0.8268055,0.12370012,0.3042282,-0.23666267,-0.6385506,-1.95,-27.6375,-28.331251
1763129279168,-0.48215377,6.5742803,7.004988,-0.5931497,-0.8268055,0.12370012,0.3042282,-0.23666267,-0.6385506,-1.95,-27.6375,-28.331251
1763129279177,-0.48215377,6.5742803,7.004988,-0.5931497,-0.8268055,0.12370012,0.2937018,-0.23916957,-0.6428305,-1.95,-27.6375,-28.331251
1763129279178,-0.48215377,6.5742803,7.004988,-0.5931497,-0.8268055,0.12370012,0.2937018,-0.23916957,-0.6428305,-3.075,-28.5375,-28.725
1763129279189,-0.48215377,6.5742803,7.004988,-0.49541134,-0.85383624,0.10644319,0.2937018,-0.23916957,-0.6428305,-3.075,-28.5375,-28.725
1763129279190,-0.4851448,6.984051,6.8422766,-0.49541134,-0.85383624,0.10644319,0.2937018,-0.23916957,-0.6428305,-3.075,-28.5375,-28.725
1763129279198,-0.4851448,6.984051,6.8422766,-0.49541134,-0.85383624,0.10644319,0.28414097,-0.24213868,-0.64606375,-3.075,-28.5375,-28.725
1763129279199,-0.4851448,6.984051,6.8422766,-0.49541134,-0.85383624,0.10644319,0.28414097,-0.24213868,-0.64606375,-2.41875,-27.112501,-28.612501
1763129279211,-0.4851448,6.984051,6.8422766,-0.5198459,-0.802829,0.056810424,0.28414097,-0.24213868,-0.64606375,-2.41875,-27.112501,-28.612501
1763129279212,-0.3714857,6.751349,6.951748,-0.5198459,-0.802829,0.056810424,0.28414097,-0.24213868,-0.64606375,-2.41875,-27.112501,-28.612501
1763129279219,-0.3714857,6.751349,6.951748,-0.5198459,-0.802829,0.056810424,0.27519304,-0.24421027,-0.648827,-2.41875,-27.112501,-28.612501
1763129279220,-0.3714857,6.751349,6.951748,-0.5198459,-0.802829,0.056810424,0.27519304,-0.24421027,-0.648827,-4.2562504,-27.54375,-29.04375
1763129279231,-0.3714857,6.751349,6.951748,-0.5879573,-0.6004801,0.06383537,0.27519304,-0.24421027,-0.648827,-4.2562504,-27.54375,-29.04375
1763129279232,-0.29790643,6.361917,7.5266237,-0.5879573,-0.6004801,0.06383537,0.27519304,-0.24421027,-0.648827,-4.2562504,-27.54375,-29.04375
1763129279237,-0.29790643,6.361917,7.5266237,-0.5879573,-0.6004801,0.06383537,0.26702654,-0.24445647,-0.6512346,-4.2562504,-27.54375,-29.04375
1763129279238,-0.29790643,6.361917,7.5266237,-0.5879573,-0.6004801,0.06383537,0.26702654,-0.24445647,-0.6512346,-4.59375,-27.13125,-27.431252
1763129279252,-0.29790643,6.361917,7.5266237,-0.5647445,-0.424551,0.13820815,0.26702654,-0.24445647,-0.6512346,-4.59375,-27.13125,-27.431252
1763129279254,-0.26799613,6.2195444,7.722835,-0.5647445,-0.424551,0.13820815,0.26702654,-0.24445647,-0.6512346,-4.59375,-27.13125,-27.431252
1763129279257,-0.26799613,6.2195444,7.722835,-0.5647445,-0.424551,0.13820815,0.25967014,-0.24400339,-0.65325004,-4.59375,-27.13125,-27.431252
1763129279258,-0.26799613,6.2195444,7.722835,-0.5647445,-0.424551,0.13820815,0.25967014,-0.24400339,-0.65325004,-4.9875,-26.250002,-28.087502
1763129279273,-0.26799613,6.2195444,7.722835,-0.39477137,-0.35689774,0.18280129,0.25967014,-0.24400339,-0.65325004,-4.9875,-26.250002,-28.087502
1763129279274,-0.0634098,6.384051,7.948957,-0.39477137,-0.35689774,0.18280129,0.25967014,-0.24400339,-0.65325004,-4.9875,-26.250002,-28.087502
1763129279278,-0.0634098,6.384051,7.948957,-0.39477137,-0.35689774,0.18280129,0.2537565,-0.24438444,-0.6545033,-4.9875,-26.250002,-28.087502
1763129279279,-0.0634098,6.384051,7.948957,-0.39477137,-0.35689774,0.18280129,0.2537565,-0.24438444,-0.6545033,-4.8562503,-25.425001,-29.325
1763129279295,0.02871387,6.4402823,7.938189,-0.39477137,-0.35689774,0.18280129,0.2537565,-0.24438444,-0.6545033,-4.8562503,-25.425001,-29.325
1763129279296,0.02871387,6.4402823,7.938189,-0.18509203,-0.27091852,0.17791437,0.2537565,-0.24438444,-0.6545033,-4.8562503,-25.425001,-29.325
1763129279299,0.02871387,6.4402823,7.938189,-0.18509203,-0.27091852,0.17791437,0.24989997,-0.24559215,-0.65497273,-4.8562503,-25.425001,-29.325
1763129279300,0.02871387,6.4402823,7.938189,-0.18509203,-0.27091852,0.17791437,0.24989997,-0.24559215,-0.65497273,-5.1375003,-26.437502,-28.725
1763129279315,0.02871387,6.4402823,7.938189,-0.09560034,-0.14385866,0.17409647,0.24989997,-0.24559215,-0.65497273,-5.1375003,-26.437502,-28.725
1763129279315,-0.014356935,6.3804617,7.676175,-0.09560034,-0.14385866,0.17409647,0.24989997,-0.24559215,-0.65497273,-5.1375003,-26.437502,-28.725
1763129279318,-0.014356935,6.3804617,7.676175,-0.09560034,-0.14385866,0.17409647,0.24758908,-0.24649046,-0.6548025,-5.1375003,-26.437502,-28.725
1763129279319,-0.014356935,6.3804617,7.676175,-0.09560034,-0.14385866,0.17409647,0.24758908,-0.24649046,-0.6548025,-4.4625,-26.60625,-29.23125
1763129279336,-0.014356935,6.3804617,7.676175,-0.089033544,-0.034819294,0.16447534,0.24758908,-0.24649046,-0.6548025,-4.4625,-26.60625,-29.23125
1763129279337,-0.0,6.5162544,7.4548388,-0.089033544,-0.034819294,0.16447534,0.24758908,-0.24649046,-0.6548025,-4.4625,-26.60625,-29.23125
1763129279339,-0.0,6.5162544,7.4548388,-0.089033544,-0.034819294,0.16447534,0.24619874,-0.2465863,-0.65421283,-4.4625,-26.60625,-29.23125
1763129279340,-0.0,6.5162544,7.4548388,-0.089033544,-0.034819294,0.16447534,0.24619874,-0.2465863,-0.65421283,-5.6625004,-27.187502,-27.468752
1763129279358,-0.0,6.5162544,7.4548388,-0.089033544,-0.034819294,0.16447534,0.24513675,-0.24724284,-0.6535169,-5.6625004,-27.187502,-27.468752
1763129279359,-0.0,6.5162544,7.4548388,-0.031917684,-0.082466744,0.12904519,0.24513675,-0.24724284,-0.6535169,-5.6625004,-27.187502,-27.468752
1763129279360,-0.0,6.5162544,7.4548388,-0.031917684,-0.082466744,0.12904519,0.24513675,-0.24724284,-0.6535169,-5.7937503,-27.862501,-29.1375
1763129279362,0.060418773,6.6155562,7.285547,-0.031917684,-0.082466744,0.12904519,0.24513675,-0.24724284,-0.6535169,-5.7937503,-27.862501,-29.1375
1763129279380,0.060418773,6.6155562,7.285547,-0.031917684,-0.082466744,0.12904519,0.24432813,-0.24929747,-0.6529662,-5.7937503,-27.862501,-29.1375
1763129279381,0.060418773,6.6155562,7.285547,0.0810923,-0.19639303,0.076816246,0.24432813,-0.24929747,-0.6529662,-5.7937503,-27.862501,-29.1375
1763129279382,0.060418773,6.6155562,7.285547,0.0810923,-0.19639303,0.076816246,0.24432813,-0.24929747,-0.6529662,-6.9,-27.468752,-27.750002
1763129279383,0.25842485,6.655038,7.192825,0.0810923,-0.19639303,0.076816246,0.24432813,-0.24929747,-0.6529662,-6.9,-27.468752,-27.750002
1763129279397,0.25842485,6.655038,7.192825,0.0810923,-0.19639303,0.076816246,0.24432813,-0.24929747,-0.6529662,-4.6125,-25.66875,-28.63125
1763129279398,0.25842485,6.655038,7.192825,0.0810923,-0.19639303,0.076816246,0.24389021,-0.25189695,-0.6527511,-4.6125,-25.66875,-28.63125
1763129279399,0.25842485,6.655038,7.192825,0.14462224,-0.23609924,0.0067195124,0.24389021,-0.25189695,-0.6527511,-4.6125,-25.66875,-28.63125
1763129279400,0.526421,6.823134,7.2532434,0.14462224,-0.23609924,0.0067195124,0.24389021,-0.25189695,-0.6527511,-4.6125,-25.66875,-28.63125
1763129279418,0.526421,6.823134,7.2532434,0.14462224,-0.23609924,0.0067195124,0.24389021,-0.25189695,-0.6527511,-6.9187503,-27.468752,-26.250002
1763129279420,0.526421,6.823134,7.2532434,0.14462224,-0.23609924,0.0067195124,0.24367113,-0.2532931,-0.6530068,-6.9187503,-27.468752,-26.250002
1763129279421,0.526421,6.823134,7.2532434,0.072540194,-0.16279547,-0.07620538,0.24367113,-0.2532931,-0.6530068,-6.9187503,-27.468752,-26.250002
1763129279423,0.44805604,6.783054,7.175477,0.072540194,-0.16279547,-0.07620538,0.24367113,-0.2532931,-0.6530068,-6.9187503,-27.468752,-26.250002
1763129279437,0.44805604,6.783054,7.175477,0.072540194,-0.16279547,-0.07620538,0.24367113,-0.2532931,-0.6530068,-6.8812504,-27.618752,-26.812502
1763129279440,0.20458634,6.6071815,7.157531,0.072540194,-0.16279547,-0.07620538,0.24367113,-0.2532931,-0.6530068,-6.8812504,-27.618752,-26.812502
1763129279441,0.20458634,6.6071815,7.157531,-0.050396346,-0.04856375,-0.101250835,0.24367113,-0.2532931,-0.6530068,-6.8812504,-27.618752,-26.812502
1763129279443,0.20458634,6.6071815,7.157531,-0.050396346,-0.04856375,-0.101250835,0.24346732,-0.25295717,-0.6534419,-6.8812504,-27.618752,-26.812502
1763129279459,0.20458634,6.6071815,7.157531,-0.050396346,-0.04856375,-0.101250835,0.24346732,-0.25295717,-0.6534419,-8.53125,-28.331251,-27.712502
1763129279462,0.20458634,6.6071815,7.157531,-0.107359484,-0.028405212,-0.07315106,0.24346732,-0.25295717,-0.6534419,-8.53125,-28.331251,-27.712502
1763129279463,0.20458634,6.6071815,7.157531,-0.107359484,-0.028405212,-0.07315106,0.24289782,-0.2521518,-0.65393007,-8.53125,-28.331251,-27.712502
1763129279463,0.036490545,6.5198436,7.2329044,-0.107359484,-0.028405212,-0.07315106,0.24289782,-0.2521518,-0.65393007,-8.53125,-28.331251,-27.712502
1763129279479,0.036490545,6.5198436,7.2329044,-0.107359484,-0.028405212,-0.07315106,0.24289782,-0.2521518,-0.65393007,-8.606251,-28.0125,-26.75625
1763129279482,0.10049855,6.510272,7.2963142,-0.107359484,-0.028405212,-0.07315106,0.24289782,-0.2521518,-0.65393007,-8.606251,-28.0125,-26.75625
1763129279483,0.10049855,6.510272,7.2963142,-0.06826414,-0.09544762,-0.05054906,0.24289782,-0.2521518,-0.65393007,-8.606251,-28.0125,-26.75625
1763129279485,0.10049855,6.510272,7.2963142,-0.06826414,-0.09544762,-0.05054906,0.24204576,-0.25214452,-0.6544732,-8.606251,-28.0125,-26.75625
1763129279497,0.10049855,6.510272,7.2963142,-0.06826414,-0.09544762,-0.05054906,0.24204576,-0.25214452,-0.6544732,-10.59375,-29.268751,-25.2
1763129279504,0.10049855,6.510272,7.2963142,-0.06826414,-0.09544762,-0.05054906,0.24122061,-0.25299543,-0.65519977,-10.59375,-29.268751,-25.2
1763129279505,0.10049855,6.510272,7.2963142,-0.0042760535,-0.15867212,-0.069485866,0.24122061,-0.25299543,-0.65519977,-10.59375,-29.268751,-25.2
1763129279506,0.15792629,6.5072813,7.3381886,-0.0042760535,-0.15867212,-0.069485866,0.24122061,-0.25299543,-0.65519977,-10.59375,-29.268751,-25.2
1763129279519,0.15792629,6.5072813,7.3381886,-0.0042760535,-0.15867212,-0.069485866,0.24122061,-0.25299543,-0.65519977,-8.15625,-28.406252,-26.681252
1763129279524,0.15792629,6.5072813,7.3381886,-0.0042760535,-0.15867212,-0.069485866,0.24062118,-0.25397262,-0.65618557,-8.15625,-28.406252,-26.681252
1763129279526,0.15792629,6.5072813,7.3381886,0.021685699,-0.1631009,-0.108886644,0.24062118,-0.25397262,-0.65618557,-8.15625,-28.406252,-26.681252
1763129279527,0.020338992,6.3565335,7.292127,0.021685699,-0.1631009,-0.108886644,0.24062118,-0.25397262,-0.65618557,-8.15625,-28.406252,-26.681252
1763129279538,0.020338992,6.3565335,7.292127,0.021685699,-0.1631009,-0.108886644,0.24062118,-0.25397262,-0.65618557,-7.275,-28.2,-27.675001
1763129279546,0.020338992,6.3565335,7.292127,-0.026419902,-0.09957096,-0.08613193,0.24062118,-0.25397262,-0.65618557,-7.275,-28.2,-27.675001
1763129279547,-0.09930214,6.250053,7.227521,-0.026419902,-0.09957096,-0.08613193,0.24062118,-0.25397262,-0.65618557,-7.275,-28.2,-27.675001
1763129279558,-0.09930214,6.250053,7.227521,-0.026419902,-0.09957096,-0.08613193,0.24003252,-0.25422803,-0.6570914,-7.275,-28.2,-27.675001
1763129279559,-0.09930214,6.250053,7.227521,-0.026419902,-0.09957096,-0.08613193,0.24003252,-0.25422803,-0.6570914,-7.0687504,-27.187502,-27.581251
1763129279567,-0.09930214,6.250053,7.227521,-0.058795735,-0.12202024,-0.053603385,0.24003252,-0.25422803,-0.6570914,-7.0687504,-27.187502,-27.581251
1763129279568,-0.10827523,6.3140607,7.19103,-0.058795735,-0.12202024,-0.053603385,0.24003252,-0.25422803,-0.6570914,-7.0687504,-27.187502,-27.581251
1763129279577,-0.10827523,6.3140607,7.19103,-0.058795735,-0.12202024,-0.053603385,0.23897997,-0.25448576,-0.65795344,-7.0687504,-27.187502,-27.581251
1763129279578,-0.10827523,6.3140607,7.19103,-0.058795735,-0.12202024,-0.053603385,0.23897997,-0.25448576,-0.65795344,-8.45625,-28.95,-26.306252
1763129279588,0.07178468,6.34098,7.2963142,-0.058795735,-0.12202024,-0.053603385,0.23897997,-0.25448576,-0.65795344,-8.45625,-28.95,-26.306252
1763129279589,0.07178468,6.34098,7.2963142,-0.026419902,-0.16355905,-0.044134982,0.23897997,-0.25448576,-0.65795344,-8.45625,-28.95,-26.306252
1763129279597,0.07178468,6.34098,7.2963142,-0.026419902,-0.16355905,-0.044134982,0.23897997,-0.25448576,-0.65795344,-6.80625,-27.13125,-28.275002
1763129279598,0.07178468,6.34098,7.2963142,-0.026419902,-0.16355905,-0.044134982,0.23789412,-0.25525507,-0.65866685,-6.80625,-27.13125,-28.275002
1763129279608,0.07178468,6.34098,7.2963142,-0.0025961753,-0.17745622,-0.043218683,0.23789412,-0.25525507,-0.65866685,-6.80625,-27.13125,-28.275002
1763129279609,0.11006984,6.361319,7.2616186,-0.0025961753,-0.17745622,-0.043218683,0.23789412,-0.25525507,-0.65866685,-6.80625,-27.13125,-28.275002
1763129279619,0.11006984,6.361319,7.2616186,-0.0025961753,-0.17745622,-0.043218683,0.23681878,-0.25632834,-0.6593937,-6.80625,-27.13125,-28.275002
1763129279620,0.11006984,6.361319,7.2616186,-0.0025961753,-0.17745622,-0.043218683,0.23681878,-0.25632834,-0.6593937,-7.1250005,-27.525002,-28.875002
1763129279630,0.11006984,6.361319,7.2616186,0.027794348,-0.21395539,-0.060475614,0.23681878,-0.25632834,-0.6593937,-7.1250005,-27.525002,-28.875002
1763129279631,0.17048861,6.4031935,7.038488,0.027794348,-0.21395539,-0.060475614,0.23681878,-0.25632834,-0.6593937,-7.1250005,-27.525002,-28.875002
1763129279638,0.17048861,6.4031935,7.038488,0.027794348,-0.21395539,-0.060475614,0.23576643,-0.2578159,-0.6602069,-7.1250005,-27.525002,-28.875002
1763129279640,0.17048861,6.4031935,7.038488,0.027794348,-0.21395539,-0.060475614,0.23576643,-0.2578159,-0.6602069,-7.7625003,-27.675001,-27.50625
1763129279653,0.17048861,6.4031935,7.038488,0.020922119,-0.2677115,-0.051923506,0.23576643,-0.2578159,-0.6602069,-7.7625003,-27.675001,-27.50625
1763129279654,0.10707881,6.296713,6.8853474,0.020922119,-0.2677115,-0.051923506,0.23576643,-0.2578159,-0.6602069,-7.7625003,-27.675001,-27.50625
1763129279657,0.10707881,6.296713,6.8853474,0.020922119,-0.2677115,-0.051923506,0.23576643,-0.2578159,-0.6602069,-8.08125,-27.2625,-27.4125
1763129279672,0.10707881,6.296713,6.8853474,-0.006261364,-0.31261006,-0.005345067,0.23576643,-0.2578159,-0.6602069,-8.08125,-27.2625,-27.4125
1763129279673,0.13878371,6.3278193,7.0337024,-0.006261364,-0.31261006,-0.005345067,0.23576643,-0.2578159,-0.6602069,-8.08125,-27.2625,-27.4125
1763129279677,0.13878371,6.3278193,7.0337024,-0.006261364,-0.31261006,-0.005345067,0.23576643,-0.2578159,-0.6602069,-8.7375,-28.556252,-28.781252
1763129279679,0.13878371,6.3278193,7.0337024,-0.006261364,-0.31261006,-0.005345067,0.23537765,-0.25911406,-0.65926427,-8.7375,-28.556252,-28.781252
1763129279680,0.13878371,6.3278193,7.0337024,-0.006261364,-0.31261006,-0.005345067,0.23453066,-0.2605302,-0.6581206,-8.7375,-28.556252,-28.781252
1763129279692,0.13878371,6.3278193,7.0337024,-0.029168794,-0.30405796,0.028710645,0.23453066,-0.2605302,-0.6581206,-8.7375,-28.556252,-28.781252
1763129279693,0.3272185,6.4235325,7.1336026,-0.029168794,-0.30405796,0.028710645,0.23453066,-0.2605302,-0.6581206,-8.7375,-28.556252,-28.781252
1763129279701,0.3272185,6.4235325,7.1336026,-0.029168794,-0.30405796,0.028710645,0.23317647,-0.26193628,-0.65745276,-8.7375,-28.556252,-28.781252
1763129279701,0.3272185,6.4235325,7.1336026,-0.029168794,-0.30405796,0.028710645,0.23317647,-0.26193628,-0.65745276,-9.918751,-29.437502,-26.00625
1763129279713,0.58504516,6.588039,7.132406,-0.029168794,-0.30405796,0.028710645,0.23317647,-0.26193628,-0.65745276,-9.918751,-29.437502,-26.00625
1763129279714,0.58504516,6.588039,7.132406,-0.058490302,-0.3028362,0.03451386,0.23317647,-0.26193628,-0.65745276,-9.918751,-29.437502,-26.00625
1763129279718,0.58504516,6.588039,7.132406,-0.058490302,-0.3028362,0.03451386,0.23149961,-0.2632927,-0.65666556,-9.918751,-29.437502,-26.00625
1763129279719,0.58504516,6.588039,7.132406,-0.058490302,-0.3028362,0.03451386,0.23149961,-0.2632927,-0.65666556,-13.14375,-31.125002,-22.425001
1763129279735,0.58504516,6.588039,7.132406,-0.035582874,-0.38499752,0.012522728,0.23149961,-0.2632927,-0.65666556,-13.14375,-31.125002,-22.425001
1763129279736,0.7752745,6.701698,7.146763,-0.035582874,-0.38499752,0.012522728,0.23149961,-0.2632927,-0.65666556,-13.14375,-31.125002,-22.425001
1763129279739,0.7752745,6.701698,7.146763,-0.035582874,-0.38499752,0.012522728,0.22979186,-0.26535615,-0.65503526,-13.14375,-31.125002,-22.425001
1763129279740,0.7752745,6.701698,7.146763,-0.035582874,-0.38499752,0.012522728,0.22979186,-0.26535615,-0.65503526,-10.51875,-28.931252,-25.406252
1763129279756,0.7752745,6.701698,7.146763,0.07055488,-0.50885034,-0.020922119,0.22979186,-0.26535615,-0.65503526,-10.51875,-28.931252,-25.406252
1763129279757,0.6017949,6.5084777,7.0145597,0.07055488,-0.50885034,-0.020922119,0.22979186,-0.26535615,-0.65503526,-10.51875,-28.931252,-25.406252
1763129279759,0.6017949,6.5084777,7.0145597,0.07055488,-0.50885034,-0.020922119,0.22817522,-0.2689896,-0.6531717,-10.51875,-28.931252,-25.406252
1763129279759,0.6017949,6.5084777,7.0145597,0.07055488,-0.50885034,-0.020922119,0.22817522,-0.2689896,-0.6531717,-8.212501,-28.087502,-26.475
1763129279779,0.6017949,6.5084777,7.0145597,0.17928882,-0.65790135,-0.01282816,0.22817522,-0.2689896,-0.6531717,-8.212501,-28.087502,-26.475
1763129279780,0.6017949,6.5084777,7.0145597,0.17928882,-0.65790135,-0.01282816,0.22611585,-0.27432778,-0.6523453,-8.212501,-28.087502,-26.475
1763129279781,0.6017949,6.5084777,7.0145597,0.17928882,-0.65790135,-0.01282816,0.22611585,-0.27432778,-0.6523453,-9.95625,-29.1375,-26.550001
1763129279783,0.40079778,6.3661046,6.9852476,0.17928882,-0.65790135,-0.01282816,0.22611585,-0.27432778,-0.6523453,-9.95625,-29.1375,-26.550001
1763129279798,0.40079778,6.3661046,6.9852476,0.1875355,-0.6582068,1.527162E-4,0.22611585,-0.27432778,-0.6523453,-9.95625,-29.1375,-26.550001
1763129279799,0.40079778,6.3661046,6.9852476,0.1875355,-0.6582068,1.527162E-4,0.22611585,-0.27432778,-0.6523453,-11.043751,-28.087502,-25.63125
1763129279800,0.92243314,6.5401826,7.09113,0.1875355,-0.6582068,1.527162E-4,0.22611585,-0.27432778,-0.6523453,-11.043751,-28.087502,-25.63125
1763129279802,0.92243314,6.5401826,7.09113,0.1875355,-0.6582068,1.527162E-4,0.22381213,-0.27964768,-0.6526717,-11.043751,-28.087502,-25.63125
1763129279818,0.92243314,6.5401826,7.09113,0.1875355,-0.6582068,1.527162E-4,0.22381213,-0.27964768,-0.6526717,-10.9125,-28.725,-27.093752
1763129279819,0.92243314,6.5401826,7.09113,0.1875355,-0.6582068,1.527162E-4,0.22134513,-0.28323784,-0.653092,-10.9125,-28.725,-27.093752
1763129279821,0.92243314,6.5401826,7.09113,0.042607818,-0.51526445,-0.07589995,0.22134513,-0.28323784,-0.653092,-10.9125,-28.725,-27.093752
1763129279822,1.2000005,6.7573314,7.2089763,0.042607818,-0.51526445,-0.07589995,0.22134513,-0.28323784,-0.653092,-10.9125,-28.725,-27.093752
1763129279837,1.2000005,6.7573314,7.2089763,0.042607818,-0.51526445,-0.07589995,0.22134513,-0.28323784,-0.653092,-11.3625,-28.48125,-25.781252
1763129279840,1.2000005,6.7573314,7.2089763,0.042607818,-0.51526445,-0.07589995,0.21916392,-0.28468642,-0.6532794,-11.3625,-28.48125,-25.781252
1763129279841,1.2000005,6.7573314,7.2089763,-0.11346813,-0.37125307,-0.15042545,0.21916392,-0.28468642,-0.6532794,-11.3625,-28.48125,-25.781252
1763129279842,0.74536425,6.582057,7.359126,-0.11346813,-0.37125307,-0.15042545,0.21916392,-0.28468642,-0.6532794,-11.3625,-28.48125,-25.781252
1763129279858,0.74536425,6.582057,7.359126,-0.11346813,-0.37125307,-0.15042545,0.21916392,-0.28468642,-0.6532794,-9.525001,-26.306252,-26.118752
1763129279862,0.74536425,6.582057,7.359126,-0.11346813,-0.37125307,-0.15042545,0.21675049,-0.28471243,-0.65518194,-9.525001,-26.306252,-26.118752
1763129279863,0.74536425,6.582057,7.359126,-0.18890993,-0.27091852,-0.1291979,0.21675049,-0.28471243,-0.65518194,-9.525001,-26.306252,-26.118752
1763129279864,0.49471608,6.3565335,7.517052,-0.18890993,-0.27091852,-0.1291979,0.21675049,-0.28471243,-0.65518194,-9.525001,-26.306252,-26.118752
1763129279878,0.49471608,6.3565335,7.517052,-0.18890993,-0.27091852,-0.1291979,0.21675049,-0.28471243,-0.65518194,-9.69375,-26.831251,-26.493752
1763129279881,0.49471608,6.3565335,7.517052,-0.19440772,-0.23594652,-0.06658426,0.21675049,-0.28471243,-0.65518194,-9.69375,-26.831251,-26.493752
1763129279882,0.5802595,6.265606,7.7461653,-0.19440772,-0.23594652,-0.06658426,0.21675049,-0.28471243,-0.65518194,-9.69375,-26.831251,-26.493752
1763129279883,0.5802595,6.265606,7.7461653,-0.19440772,-0.23594652,-0.06658426,0.21361852,-0.28461653,-0.6586177,-9.69375,-26.831251,-26.493752
1763129279898,0.5802595,6.265606,7.7461653,-0.19440772,-0.23594652,-0.06658426,0.21361852,-0.28461653,-0.6586177,-11.925,-28.143751,-25.425001
1763129279903,0.5802595,6.265606,7.7461653,-0.11911863,-0.21441354,-0.025045456,0.21361852,-0.28461653,-0.6586177,-11.925,-28.143751,-25.425001
1763129279904,0.5802595,6.265606,7.7461653,-0.11911863,-0.21441354,-0.025045456,0.21013284,-0.2852724,-0.66296613,-11.925,-28.143751,-25.425001
1763129279905,0.7046863,6.2548385,7.9011,-0.11911863,-0.21441354,-0.025045456,0.21013284,-0.2852724,-0.66296613,-11.925,-28.143751,-25.425001
1763129279918,0.7046863,6.2548385,7.9011,-0.11911863,-0.21441354,-0.025045456,0.21013284,-0.2852724,-0.66296613,-10.200001,-27.73125,-25.331251
1763129279923,0.7046863,6.2548385,7.9011,-0.015729768,-0.16554436,-0.025045456,0.21013284,-0.2852724,-0.66296613,-10.200001,-27.73125,-25.331251
1763129279924,0.8673982,6.334998,7.9040914,-0.015729768,-0.16554436,-0.025045456,0.21013284,-0.2852724,-0.66296613,-10.200001,-27.73125,-25.331251
1763129279925,0.8673982,6.334998,7.9040914,-0.015729768,-0.16554436,-0.025045456,0.20716734,-0.28650808,-0.6675613,-10.200001,-27.73125,-25.331251
1763129279937,0.8673982,6.334998,7.9040914,-0.015729768,-0.16554436,-0.025045456,0.20716734,-0.28650808,-0.6675613,-11.418751,-28.031252,-25.931252
1763129279945,0.8673982,6.334998,7.9040914,0.011606431,-0.08155045,-0.060017463,0.20716734,-0.28650808,-0.6675613,-11.418751,-28.031252,-25.931252
1763129279946,0.8673982,6.334998,7.9040914,0.011606431,-0.08155045,-0.060017463,0.2051912,-0.28735667,-0.6714828,-11.418751,-28.031252,-25.931252
1763129279947,0.90448695,6.4013987,7.5146594,0.011606431,-0.08155045,-0.060017463,0.2051912,-0.28735667,-0.6714828,-11.418751,-28.031252,-25.931252
1763129279958,0.90448695,6.4013987,7.5146594,0.011606431,-0.08155045,-0.060017463,0.2051912,-0.28735667,-0.6714828,-12.7875,-29.1375,-25.725
1763129279965,0.90448695,6.4013987,7.5146594,-0.016646065,-0.076816246,-0.07345649,0.2051912,-0.28735667,-0.6714828,-12.7875,-29.1375,-25.725
1763129279967,0.88354975,6.4683976,7.274181,-0.016646065,-0.076816246,-0.07345649,0.2051912,-0.28735667,-0.6714828,-12.7875,-29.1375,-25.725
1763129279978,0.88354975,6.4683976,7.274181,-0.016646065,-0.076816246,-0.07345649,0.20441614,-0.2876313,-0.6730069,-12.7875,-29.1375,-25.725
1763129279979,0.88354975,6.4683976,7.274181,-0.016646065,-0.076816246,-0.07345649,0.20441614,-0.2876313,-0.6730069,-11.587501,-26.94375,-27.468752
1763129279986,0.88354975,6.4683976,7.274181,-0.04459313,-0.10476331,-0.072540194,0.20441614,-0.2876313,-0.6730069,-11.587501,-26.94375,-27.468752
1763129279987,0.8219346,6.3714886,7.26102,-0.04459313,-0.10476331,-0.072540194,0.20441614,-0.2876313,-0.6730069,-11.587501,-26.94375,-27.468752
1763129279997,0.8219346,6.3714886,7.26102,-0.04459313,-0.10476331,-0.072540194,0.20422149,-0.28763193,-0.6729483,-11.587501,-26.94375,-27.468752
1763129279997,0.8219346,6.3714886,7.26102,-0.04459313,-0.10476331,-0.072540194,0.20422149,-0.28763193,-0.6729483,-13.856251,-29.550001,-25.781252
1763129280007,0.8219346,6.3714886,7.26102,-0.052839804,-0.09590577,-0.048716467,0.20422149,-0.28763193,-0.6729483,-13.856251,-29.550001,-25.781252
1763129280007,0.6975078,6.2117677,7.2849483,-0.052839804,-0.09590577,-0.048716467,0.20422149,-0.28763193,-0.6729483,-13.856251,-29.550001,-25.781252
1763129280018,0.6975078,6.2117677,7.2849483,-0.052839804,-0.09590577,-0.048716467,0.20378526,-0.28756168,-0.6731961,-13.856251,-29.550001,-25.781252
1763129280019,0.6975078,6.2117677,7.2849483,-0.052839804,-0.09590577,-0.048716467,0.20378526,-0.28756168,-0.6731961,-11.85,-27.150002,-24.31875
1763129280029,0.6975078,6.2117677,7.2849483,-0.008399391,-0.06459895,-1.527162E-4,0.20378526,-0.28756168,-0.6731961,-11.85,-27.150002,-24.31875
1763129280029,0.887139,6.2979093,7.4380894,-0.008399391,-0.06459895,-1.527162E-4,0.20378526,-0.28756168,-0.6731961,-11.85,-27.150002,-24.31875
1763129280038,0.887139,6.2979093,7.4380894,-0.008399391,-0.06459895,-1.527162E-4,0.20330046,-0.28770468,-0.6739738,-11.85,-27.150002,-24.31875
1763129280039,0.887139,6.2979093,7.4380894,-0.008399391,-0.06459895,-1.527162E-4,0.20330046,-0.28770468,-0.6739738,-11.175,-27.16875,-26.081251
1763129280050,0.887139,6.2979093,7.4380894,-0.023365578,0.045509428,0.008399391,0.20330046,-0.28770468,-0.6739738,-11.175,-27.16875,-26.081251
1763129280051,0.991825,6.276972,7.3782687,-0.023365578,0.045509428,0.008399391,0.20330046,-0.28770468,-0.6739738,-11.175,-27.16875,-26.081251
1763129280061,0.991825,6.276972,7.3782687,-0.023365578,0.045509428,0.008399391,0.20308582,-0.28726798,-0.6747256,-11.175,-27.16875,-26.081251
1763129280062,0.991825,6.276972,7.3782687,-0.023365578,0.045509428,0.008399391,0.20308582,-0.28726798,-0.6747256,-10.6125,-27.525002,-26.56875
1763129280071,0.8596215,6.337989,7.245467,-0.023365578,0.045509428,0.008399391,0.20308582,-0.28726798,-0.6747256,-10.6125,-27.525002,-26.56875
1763129280072,0.8596215,6.337989,7.245467,-0.07880156,0.13836087,0.048411034,0.20308582,-0.28726798,-0.6747256,-10.6125,-27.525002,-26.56875
1763129280077,0.8596215,6.337989,7.245467,-0.07880156,0.13836087,0.048411034,0.2030444,-0.28599775,-0.6748342,-10.6125,-27.525002,-26.56875
1763129280078,0.8596215,6.337989,7.245467,-0.07880156,0.13836087,0.048411034,0.2030444,-0.28599775,-0.6748342,-10.462501,-28.44375,-25.837502
1763129280091,0.8596215,6.337989,7.245467,-0.075594515,0.08491021,0.054519683,0.2030444,-0.28599775,-0.6748342,-10.462501,-28.44375,-25.837502
1763129280092,0.92183495,6.4827547,7.1880393,-0.075594515,0.08491021,0.054519683,0.2030444,-0.28599775,-0.6748342,-10.462501,-28.44375,-25.837502
1763129280098,0.92183495,6.4827547,7.1880393,-0.075594515,0.08491021,0.054519683,0.20345773,-0.28480643,-0.67380995,-10.462501,-28.44375,-25.837502
1763129280099,0.92183495,6.4827547,7.1880393,-0.075594515,0.08491021,0.054519683,0.20345773,-0.28480643,-0.67380995,-11.925,-28.781252,-26.775002
1763129280112,0.92183495,6.4827547,7.1880393,-0.03649917,0.014508039,0.01847866,0.20345773,-0.28480643,-0.67380995,-11.925,-28.781252,-26.775002
1763129280113,1.0307083,6.393622,7.292127,-0.03649917,0.014508039,0.01847866,0.20345773,-0.28480643,-0.67380995,-11.925,-28.781252,-26.775002
1763129280118,1.0307083,6.393622,7.292127,-0.03649917,0.014508039,0.01847866,0.20345773,-0.28480643,-0.67380995,-10.481251,-27.6375,-24.843752
1763129280119,1.0307083,6.393622,7.292127,-0.03649917,0.014508039,0.01847866,0.2043159,-0.28419563,-0.6718845,-10.481251,-27.6375,-24.843752
1763129280134,1.0307083,6.393622,7.292127,-0.028405212,0.028252495,0.015729768,0.2043159,-0.28419563,-0.6718845,-10.481251,-27.6375,-24.843752
1763129280135,0.91585284,6.337391,7.389036,-0.028405212,0.028252495,0.015729768,0.2043159,-0.28419563,-0.6718845,-10.481251,-27.6375,-24.843752
1763129280139,0.91585284,6.337391,7.389036,-0.028405212,0.028252495,0.015729768,0.2043159,-0.28419563,-0.6718845,-10.63125,-27.35625,-26.475
1763129280140,0.91585284,6.337391,7.389036,-0.028405212,0.028252495,0.015729768,0.20459148,-0.28382984,-0.67098963,-10.63125,-27.35625,-26.475
1763129280154,0.91585284,6.337391,7.389036,-0.028863361,0.08032872,0.04535671,0.20459148,-0.28382984,-0.67098963,-10.63125,-27.35625,-26.475
1763129280156,0.85842514,6.273981,7.2705917,-0.028863361,0.08032872,0.04535671,0.20459148,-0.28382984,-0.67098963,-10.63125,-27.35625,-26.475
1763129280158,0.85842514,6.273981,7.2705917,-0.028863361,0.08032872,0.04535671,0.2048627,-0.28314373,-0.670575,-10.63125,-27.35625,-26.475
1763129280159,0.85842514,6.273981,7.2705917,-0.028863361,0.08032872,0.04535671,0.2048627,-0.28314373,-0.670575,-10.293751,-25.518751,-26.7
1763129280175,0.85842514,6.273981,7.2705917,-0.025961753,0.07849612,0.06017018,0.2048627,-0.28314373,-0.670575,-10.293751,-25.518751,-26.7
1763129280177,1.0277174,6.4827547,7.203593,-0.025961753,0.07849612,0.06017018,0.2048627,-0.28314373,-0.670575,-10.293751,-25.518751,-26.7
1763129280178,1.0277174,6.4827547,7.203593,-0.025961753,0.07849612,0.06017018,0.2053076,-0.28243172,-0.6697688,-10.293751,-25.518751,-26.7
1763129280180,1.0277174,6.4827547,7.203593,-0.025961753,0.07849612,0.06017018,0.2053076,-0.28243172,-0.6697688,-11.08125,-27.7875,-25.725
1763129280197,1.0277174,6.4827547,7.203593,-0.025961753,0.07849612,0.06017018,0.2064925,-0.28193867,-0.6675689,-11.08125,-27.7875,-25.725
1763129280199,1.0277174,6.4827547,7.203593,-0.002290743,0.055283263,0.027030766,0.2064925,-0.28193867,-0.6675689,-11.08125,-27.7875,-25.725
1763129280200,1.0277174,6.4827547,7.203593,-0.002290743,0.055283263,0.027030766,0.2064925,-0.28193867,-0.6675689,-10.387501,-27.956251,-27.750002
1763129280201,1.1264212,6.497112,7.220342,-0.002290743,0.055283263,0.027030766,0.2064925,-0.28193867,-0.6675689,-10.387501,-27.956251,-27.750002
1763129280219,1.1264212,6.497112,7.220342,-0.002290743,0.055283263,0.027030766,0.2075804,-0.28161144,-0.6656015,-10.387501,-27.956251,-27.750002
1763129280220,1.1264212,6.497112,7.220342,0.0042760535,0.046731155,-0.0010690134,0.2075804,-0.28161144,-0.6656015,-10.387501,-27.956251,-27.750002
1763129280221,1.1264212,6.497112,7.220342,0.0042760535,0.046731155,-0.0010690134,0.2075804,-0.28161144,-0.6656015,-11.4375,-27.73125,-28.275002
1763129280222,0.9762716,6.419345,7.138388,0.0042760535,0.046731155,-0.0010690134,0.2075804,-0.28161144,-0.6656015,-11.4375,-27.73125,-28.275002
1763129280238,0.9762716,6.419345,7.138388,-0.018173227,0.03084867,0.003970621,0.2075804,-0.28161144,-0.6656015,-11.4375,-27.73125,-28.275002
1763129280240,0.9762716,6.419345,7.138388,-0.018173227,0.03084867,0.003970621,0.20853977,-0.2810832,-0.6637697,-11.4375,-27.73125,-28.275002
1763129280241,0.9762716,6.419345,7.138388,-0.018173227,0.03084867,0.003970621,0.20853977,-0.2810832,-0.6637697,-10.425,-27.806252,-27.206251
1763129280242,0.8913264,6.390033,7.071389,-0.018173227,0.03084867,0.003970621,0.20853977,-0.2810832,-0.6637697,-10.425,-27.806252,-27.206251
1763129280257,0.8913264,6.390033,7.071389,-0.018173227,0.03084867,0.003970621,0.20853977,-0.2810832,-0.6637697,-11.587501,-28.687502,-24.88125
1763129280261,0.8913264,6.390033,7.071389,-0.018173227,0.03084867,0.003970621,0.2094019,-0.2803024,-0.661943,-11.587501,-28.687502,-24.88125
1763129280262,0.8913264,6.390033,7.071389,-0.049480047,0.014966187,-0.005345067,0.2094019,-0.2803024,-0.661943,-11.587501,-28.687502,-24.88125
1763129280263,0.99661064,6.375676,7.1096745,-0.049480047,0.014966187,-0.005345067,0.2094019,-0.2803024,-0.661943,-11.587501,-28.687502,-24.88125
1763129280278,0.99661064,6.375676,7.1096745,-0.049480047,0.014966187,-0.005345067,0.2094019,-0.2803024,-0.661943,-11.700001,-28.575,-27.075
1763129280281,0.99661064,6.375676,7.1096745,-0.049480047,0.014966187,-0.005345067,0.20983201,-0.2794075,-0.6604388,-11.700001,-28.575,-27.075
1763129280282,0.91106725,6.3200426,7.3011003,-0.049480047,0.014966187,-0.005345067,0.20983201,-0.2794075,-0.6604388,-11.700001,-28.575,-27.075
1763129280283,0.91106725,6.3200426,7.3011003,-0.0820086,0.019394957,-0.012370012,0.20983201,-0.2794075,-0.6604388,-11.700001,-28.575,-27.075
1763129280298,0.91106725,6.3200426,7.3011003,-0.0820086,0.019394957,-0.012370012,0.20983201,-0.2794075,-0.6604388,-11.981251,-28.63125,-25.312502
1763129280302,0.91106725,6.3200426,7.3011003,-0.0820086,0.019394957,-0.012370012,0.17637014,-0.30088952,-0.7321624,-11.981251,-28.63125,-25.312502
1763129280303,0.91106725,6.3200426,7.3011003,-0.07284562,0.030237807,0.003817905,0.17637014,-0.30088952,-0.7321624,-11.981251,-28.63125,-25.312502
1763129280304,0.7848458,6.222535,7.4159555,-0.07284562,0.030237807,0.003817905,0.17637014,-0.30088952,-0.7321624,-11.981251,-28.63125,-25.312502
1763129280319,0.7848458,6.222535,7.4159555,-0.07284562,0.030237807,0.003817905,0.17637014,-0.30088952,-0.7321624,-11.56875,-27.093752,-27.112501
1763129280322,0.7848458,6.222535,7.4159555,-0.07284562,0.030237807,0.003817905,0.15722394,-0.3108762,-0.7672719,-11.56875,-27.093752,-27.112501
1763129280323,0.7848458,6.222535,7.4159555,-0.023060145,0.011911863,0.023976443,0.15722394,-0.3108762,-0.7672719,-11.56875,-27.093752,-27.112501
1763129280324,0.81834537,6.2787666,7.493124,-0.023060145,0.011911863,0.023976443,0.15722394,-0.3108762,-0.7672719,-11.56875,-27.093752,-27.112501
1763129280337,0.81834537,6.2787666,7.493124,-0.023060145,0.011911863,0.023976443,0.15722394,-0.3108762,-0.7672719,-11.212501,-27.656252,-27.16875
1763129280344,0.81834537,6.2787666,7.493124,0.026572619,0.016493348,0.010384701,0.15722394,-0.3108762,-0.7672719,-11.212501,-27.656252,-27.16875
1763129280345,0.81834537,6.2787666,7.493124,0.026572619,0.016493348,0.010384701,0.15243675,-0.31332728,-0.7758544,-11.212501,-27.656252,-27.16875
1763129280347,0.8356933,6.2787666,7.440482,0.026572619,0.016493348,0.010384701,0.15243675,-0.31332728,-0.7758544,-11.212501,-27.656252,-27.16875
1763129280357,0.8356933,6.2787666,7.440482,0.026572619,0.016493348,0.010384701,0.15243675,-0.31332728,-0.7758544,-9.731251,-24.91875,-27.768751
1763129280364,0.8356933,6.2787666,7.440482,0.026572619,0.016493348,0.010384701,0.15311885,-0.31299558,-0.7751958,-9.731251,-24.91875,-27.768751
1763129280365,0.84047896,6.3086767,7.299904,0.026572619,0.016493348,0.010384701,0.15311885,-0.31299558,-0.7751958,-9.731251,-24.91875,-27.768751
1763129280366,0.84047896,6.3086767,7.299904,0.015729768,0.032833982,0.012064579,0.15311885,-0.31299558,-0.7751958,-9.731251,-24.91875,-27.768751
1763129280379,0.84047896,6.3086767,7.299904,0.015729768,0.032833982,0.012064579,0.15311885,-0.31299558,-0.7751958,-12.056251,-28.0125,-27.018751
1763129280386,0.84047896,6.3086767,7.299904,-0.027641632,0.045814857,0.012370012,0.15311885,-0.31299558,-0.7751958,-12.056251,-28.0125,-27.018751
1763129280386,0.91884387,6.3421764,7.2436724,-0.027641632,0.045814857,0.012370012,0.15311885,-0.31299558,-0.7751958,-12.056251,-28.0125,-27.018751
1763129280398,0.91884387,6.3421764,7.2436724,-0.027641632,0.045814857,0.012370012,0.15311885,-0.31299558,-0.7751958,-10.368751,-26.6625,-26.41875
1763129280400,0.91884387,6.3421764,7.2436724,-0.027641632,0.045814857,0.012370012,0.14906381,-0.31467924,-0.78238165,-10.368751,-26.6625,-26.41875
1763129280406,0.91884387,6.3421764,7.2436724,-0.03695732,0.02046397,0.0019853106,0.14906381,-0.31467924,-0.78238165,-10.368751,-26.6625,-26.41875
1763129280407,0.9445667,6.3804617,7.3304124,-0.03695732,0.02046397,0.0019853106,0.14906381,-0.31467924,-0.78238165,-10.368751,-26.6625,-26.41875
1763129280419,0.9445667,6.3804617,7.3304124,-0.03695732,0.02046397,0.0019853106,0.14862123,-0.31469554,-0.7831498,-10.368751,-26.6625,-26.41875
1763129280420,0.9445667,6.3804617,7.3304124,-0.03695732,0.02046397,0.0019853106,0.14862123,-0.31469554,-0.7831498,-11.475,-27.712502,-26.025002
1763129280428,0.9445667,6.3804617,7.3304124,-0.014202606,0.014355322,-0.0058032153,0.14862123,-0.31469554,-0.7831498,-11.475,-27.712502,-26.025002
1763129280429,0.8775677,6.2991056,7.452446,-0.014202606,0.014355322,-0.0058032153,0.14862123,-0.31469554,-0.7831498,-11.475,-27.712502,-26.025002
1763129280437,0.8775677,6.2991056,7.452446,-0.014202606,0.014355322,-0.0058032153,0.14621924,-0.31583297,-0.7871564,-11.475,-27.712502,-26.025002
1763129280438,0.8775677,6.2991056,7.452446,-0.014202606,0.014355322,-0.0058032153,0.14621924,-0.31583297,-0.7871564,-10.81875,-27.88125,-25.781252
1763129280448,0.8775677,6.2991056,7.452446,0.012370012,0.026572619,0.0035124724,0.14621924,-0.31583297,-0.7871564,-10.81875,-27.88125,-25.781252
1763129280449,0.9056834,6.361319,7.3776703,0.012370012,0.026572619,0.0035124724,0.14621924,-0.31583297,-0.7871564,-10.81875,-27.88125,-25.781252
1763129280458,0.9056834,6.361319,7.3776703,0.012370012,0.026572619,0.0035124724,0.14621924,-0.31583297,-0.7871564,-10.725,-26.1,-26.081251
1763129280460,0.9056834,6.361319,7.3776703,0.012370012,0.026572619,0.0035124724,0.14662692,-0.31565586,-0.78683835,-10.725,-26.1,-26.081251
1763129280470,0.9056834,6.361319,7.3776703,0.021227552,0.040011644,-0.013591741,0.14662692,-0.31565586,-0.78683835,-10.725,-26.1,-26.081251
1763129280470,1.0127622,6.4091754,7.2676005,0.021227552,0.040011644,-0.013591741,0.14662692,-0.31565586,-0.78683835,-10.725,-26.1,-26.081251
1763129280478,1.0127622,6.4091754,7.2676005,0.021227552,0.040011644,-0.013591741,0.14975072,-0.31444436,-0.7824712,-10.725,-26.1,-26.081251
1763129280479,1.0127622,6.4091754,7.2676005,0.021227552,0.040011644,-0.013591741,0.14975072,-0.31444436,-0.7824712,-10.087501,-26.60625,-28.48125
1763129280490,1.0127622,6.4091754,7.2676005,-0.022296565,0.0490219,-0.03161225,0.14975072,-0.31444436,-0.7824712,-10.087501,-26.60625,-28.48125
1763129280491,0.9128618,6.3475604,7.2011995,-0.022296565,0.0490219,-0.03161225,0.14975072,-0.31444436,-0.7824712,-10.087501,-26.60625,-28.48125
1763129280498,0.9128618,6.3475604,7.2011995,-0.022296565,0.0490219,-0.03161225,0.14925027,-0.31467664,-0.7838557,-10.087501,-26.60625,-28.48125
1763129280499,0.9128618,6.3475604,7.2011995,-0.022296565,0.0490219,-0.03161225,0.14925027,-0.31467664,-0.7838557,-10.9875,-26.79375,-25.518751
1763129280511,0.802792,6.3218374,7.4530444,-0.022296565,0.0490219,-0.03161225,0.14925027,-0.31467664,-0.7838557,-10.9875,-26.79375,-25.518751
1763129280513,0.802792,6.3218374,7.4530444,-0.033597562,0.037568185,-0.01924224,0.14925027,-0.31467664,-0.7838557,-10.9875,-26.79375,-25.518751
1763129280518,0.802792,6.3218374,7.4530444,-0.033597562,0.037568185,-0.01924224,0.1500246,-0.31417897,-0.78304654,-10.9875,-26.79375,-25.518751
1763129280519,0.802792,6.3218374,7.4530444,-0.033597562,0.037568185,-0.01924224,0.1500246,-0.31417897,-0.78304654,-10.70625,-28.35,-27.45
1763129280533,0.802792,6.3218374,7.4530444,0.0018325944,0.083230324,-0.007788526,0.1500246,-0.31417897,-0.78304654,-10.70625,-28.35,-27.45
1763129280534,0.76570326,6.1477594,7.4656067,0.0018325944,0.083230324,-0.007788526,0.1500246,-0.31417897,-0.78304654,-10.70625,-28.35,-27.45
1763129280538,0.76570326,6.1477594,7.4656067,0.0018325944,0.083230324,-0.007788526,0.1523327,-0.31290025,-0.78044313,-10.70625,-28.35,-27.45
1763129280539,0.76570326,6.1477594,7.4656067,0.0018325944,0.083230324,-0.007788526,0.1523327,-0.31290025,-0.78044313,-10.575001,-26.868752,-26.8875
1763129280557,0.76570326,6.1477594,7.4656067,0.040011644,0.06459895,-4.581486E-4,0.1523327,-0.31290025,-0.78044313,-10.575001,-26.868752,-26.8875
1763129280558,0.42891344,6.1848483,6.5718875,0.040011644,0.06459895,-4.581486E-4,0.1523327,-0.31290025,-0.78044313,-10.575001,-26.868752,-26.8875
1763129280558,0.42891344,6.1848483,6.5718875,0.040011644,0.06459895,-4.581486E-4,0.1523327,-0.31290025,-0.78044313,-10.03125,-27.225,-25.575
1763129280559,0.42891344,6.1848483,6.5718875,0.040011644,0.06459895,-4.581486E-4,0.15253007,-0.31281698,-0.781146,-10.03125,-27.225,-25.575
1763129280574,0.42891344,6.1848483,6.5718875,-0.0025961753,-0.085215636,0.054366965,0.15253007,-0.31281698,-0.781146,-10.03125,-27.225,-25.575
1763129280576,0.7465607,6.257829,7.159325,-0.0025961753,-0.085215636,0.054366965,0.15253007,-0.31281698,-0.781146,-10.03125,-27.225,-25.575
1763129280581,0.7465607,6.257829,7.159325,-0.0025961753,-0.085215636,0.054366965,0.15189776,-0.313932,-0.7819428,-10.03125,-27.225,-25.575
1763129280582,0.7465607,6.257829,7.159325,-0.0025961753,-0.085215636,0.054366965,0.15189776,-0.313932,-0.7819428,-10.875,-27.4125,-26.531252
1763129280595,0.7465607,6.257829,7.159325,-0.058490302,-0.0754418,0.03848448,0.15189776,-0.313932,-0.7819428,-10.875,-27.4125,-26.531252
1763129280596,1.1216356,6.375676,7.3375907,-0.058490302,-0.0754418,0.03848448,0.15189776,-0.313932,-0.7819428,-10.875,-27.4125,-26.531252
1763129280597,1.1216356,6.375676,7.3375907,-0.058490302,-0.0754418,0.03848448,0.15189776,-0.313932,-0.7819428,-9.4875,-26.456251,-27.281252
1763129280598,1.1216356,6.375676,7.3375907,-0.058490302,-0.0754418,0.03848448,0.1512058,-0.3139182,-0.78179616,-9.4875,-26.456251,-27.281252
1763129280616,1.1216356,6.375676,7.3375907,-0.076358095,-0.013286309,-0.024129158,0.1512058,-0.3139182,-0.78179616,-9.4875,-26.456251,-27.281252
1763129280617,0.99900347,6.355337,7.7994056,-0.076358095,-0.013286309,-0.024129158,0.1512058,-0.3139182,-0.78179616,-9.4875,-26.456251,-27.281252
1763129280618,0.99900347,6.355337,7.7994056,-0.076358095,-0.013286309,-0.024129158,0.14919466,-0.31428936,-0.78417313,-9.4875,-26.456251,-27.281252
1763129280619,0.99900347,6.355337,7.7994056,-0.076358095,-0.013286309,-0.024129158,0.14919466,-0.31428936,-0.78417313,-11.94375,-28.650002,-27.73125
1763129280638,0.99900347,6.355337,7.7994056,-0.076358095,-0.013286309,-0.024129158,0.14967683,-0.31279367,-0.78394717,-11.94375,-28.650002,-27.73125
1763129280639,0.99900347,6.355337,7.7994056,-0.0707076,0.10522146,-0.01924224,0.14967683,-0.31279367,-0.78394717,-11.94375,-28.650002,-27.73125
1763129280641,0.99900347,6.355337,7.7994056,-0.0707076,0.10522146,-0.01924224,0.14967683,-0.31279367,-0.78394717,-11.887501,-28.143751,-27.843752
1763129280642,0.73100734,6.2261243,7.880761,-0.0707076,0.10522146,-0.01924224,0.14967683,-0.31279367,-0.78394717,-11.887501,-28.143751,-27.843752
1763129280667,0.73100734,6.2261243,7.880761,-0.0707076,0.10522146,-0.01924224,0.15019773,-0.31172925,-0.7845076,-11.887501,-28.143751,-27.843752
1763129280668,0.73100734,6.2261243,7.880761,0.0010690134,0.12492185,0.009926553,0.15019773,-0.31172925,-0.7845076,-11.887501,-28.143751,-27.843752
1763129280668,0.59940207,6.146563,7.3663044,0.0010690134,0.12492185,0.009926553,0.15019773,-0.31172925,-0.7845076,-11.887501,-28.143751,-27.843752
1763129280669,0.59940207,6.146563,7.3663044,0.0010690134,0.12492185,0.009926553,0.15019773,-0.31172925,-0.7845076,-11.325001,-28.500002,-27.581251
