timestamp,accX,accY,accZ,gyroX,gyroY,gyroZ,rotX,rotY,rotZ,magX,magY,magZ
1763129282295,-3.8458643,8.653643,0.991825,0.4818196,-1.4004076,-0.008246674,0.48714948,-0.28808758,-0.6258231,18.16875,-32.4,-26.306252
1763129282296,-3.4372897,9.110074,0.5180461,0.4818196,-1.4004076,-0.008246674,0.48714948,-0.28808758,-0.6258231,18.16875,-32.4,-26.306252
1763129282297,-3.4372897,9.110074,0.5180461,0.4818196,-1.4004076,-0.008246674,0.4820619,-0.29773057,-0.62974924,18.16875,-32.4,-26.306252
1763129282298,-3.4372897,9.110074,0.5180461,0.4818196,-1.4004076,-0.008246674,0.4820619,-0.29773057,-0.62974924,14.775001,-34.4625,-24.0375
1763129282318,-3.4372897,9.110074,0.5180461,0.4818196,-1.4004076,-0.008246674,0.47419468,-0.30353048,-0.63550854,14.775001,-34.4625,-24.0375
1763129282318,-3.4372897,9.110074,0.5180461,-0.037415467,-1.4720314,-0.10797035,0.47419468,-0.30353048,-0.63550854,14.775001,-34.4625,-24.0375
1763129282319,-3.4372897,9.110074,0.5180461,-0.037415467,-1.4720314,-0.10797035,0.47419468,-0.30353048,-0.63550854,14.38125,-32.287502,-21.862501
1763129282319,-2.8839495,9.060423,1.811965,-0.037415467,-1.4720314,-0.10797035,0.47419468,-0.30353048,-0.63550854,14.38125,-32.287502,-21.862501
1763129282339,-2.8839495,9.060423,1.811965,-0.49464774,-1.1762202,-0.31734425,0.47419468,-0.30353048,-0.63550854,14.38125,-32.287502,-21.862501
1763129282340,-2.8839495,9.060423,1.811965,-0.49464774,-1.1762202,-0.31734425,0.46569252,-0.3042007,-0.6431109,14.38125,-32.287502,-21.862501
1763129282341,-2.8839495,9.060423,1.811965,-0.49464774,-1.1762202,-0.31734425,0.46569252,-0.3042007,-0.6431109,12.637501,-34.5,-26.325
1763129282342,-2.8366911,9.577272,3.5569308,-0.49464774,-1.1762202,-0.31734425,0.46569252,-0.3042007,-0.6431109,12.637501,-34.5,-26.325
1763129282357,-2.8366911,9.577272,3.5569308,-0.49464774,-1.1762202,-0.31734425,0.46569252,-0.3042007,-0.6431109,12.337501,-36.487503,-26.94375
1763129282358,-2.8366911,9.577272,3.5569308,-0.5390882,-1.3613122,-0.6375901,0.46569252,-0.3042007,-0.6431109,12.337501,-36.487503,-26.94375
1763129282360,-2.8366911,9.577272,3.5569308,-0.5390882,-1.3613122,-0.6375901,0.4558899,-0.30461806,-0.6543238,12.337501,-36.487503,-26.94375
1763129282361,-2.6973093,8.72782,2.8540392,-0.5390882,-1.3613122,-0.6375901,0.4558899,-0.30461806,-0.6543238,12.337501,-36.487503,-26.94375
1763129282378,-2.6973093,8.72782,2.8540392,-0.5390882,-1.3613122,-0.6375901,0.4558899,-0.30461806,-0.6543238,15.975,-32.11875,-27.7875
1763129282380,-2.6973093,8.72782,2.8540392,-0.5390882,-1.3613122,-0.6375901,0.43746603,-0.31146735,-0.6724242,15.975,-32.11875,-27.7875
1763129282381,-3.150151,8.486146,1.4356936,-0.5390882,-1.3613122,-0.6375901,0.43746603,-0.31146735,-0.6724242,15.975,-32.11875,-27.7875
1763129282382,-3.150151,8.486146,1.4356936,-0.50152,-2.752404,-0.8465059,0.43746603,-0.31146735,-0.6724242,15.975,-32.11875,-27.7875
1763129282397,-3.150151,8.486146,1.4356936,-0.50152,-2.752404,-0.8465059,0.43746603,-0.31146735,-0.6724242,15.4125,-31.125002,-26.7
1763129282400,-3.150151,8.486146,1.4356936,-0.6201805,-3.974439,-0.68035066,0.43746603,-0.31146735,-0.6724242,15.4125,-31.125002,-26.7
1763129282401,-3.150151,8.486146,1.4356936,-0.6201805,-3.974439,-0.68035066,0.40969154,-0.32366413,-0.69363445,15.4125,-31.125002,-26.7
1763129282402,-3.3882368,7.7910304,0.9493524,-0.6201805,-3.974439,-0.68035066,0.40969154,-0.32366413,-0.69363445,15.4125,-31.125002,-26.7
1763129282418,-3.3882368,7.7910304,0.9493524,-0.6201805,-3.974439,-0.68035066,0.40969154,-0.32366413,-0.69363445,9.431251,-33.6375,-26.75625
1763129282422,-2.3479571,7.859824,1.466202,-0.6201805,-3.974439,-0.68035066,0.40969154,-0.32366413,-0.69363445,9.431251,-33.6375,-26.75625
1763129282423,-2.3479571,7.859824,1.466202,-0.98211783,-5.395005,-0.3837758,0.40969154,-0.32366413,-0.69363445,9.431251,-33.6375,-26.75625
1763129282424,-2.3479571,7.859824,1.466202,-0.98211783,-5.395005,-0.3837758,0.36825278,-0.34096897,-0.7185807,9.431251,-33.6375,-26.75625
1763129282438,-2.3479571,7.859824,1.466202,-0.98211783,-5.395005,-0.3837758,0.36825278,-0.34096897,-0.7185807,5.68125,-35.49375,-28.575
1763129282444,-2.3479571,7.859824,1.466202,-1.5902337,-3.1668758,-0.37476555,0.36825278,-0.34096897,-0.7185807,5.68125,-35.49375,-28.575
1763129282445,-2.3479571,7.859824,1.466202,-1.5902337,-3.1668758,-0.37476555,0.3394915,-0.34225184,-0.73569435,5.68125,-35.49375,-28.575
1763129282446,-1.4817554,9.255438,12.512668,-1.5902337,-3.1668758,-0.37476555,0.3394915,-0.34225184,-0.73569435,5.68125,-35.49375,-28.575
1763129282458,-1.4817554,9.255438,12.512668,-1.5902337,-3.1668758,-0.37476555,0.3394915,-0.34225184,-0.73569435,4.5,-32.362503,-27.187502
1763129282464,-1.4817554,9.255438,12.512668,-1.6061162,0.75930494,-0.27504188,0.3394915,-0.34225184,-0.73569435,4.5,-32.362503,-27.187502
1763129282465,0.8644072,6.515058,8.233105,-1.6061162,0.75930494,-0.27504188,0.3394915,-0.34225184,-0.73569435,4.5,-32.362503,-27.187502
1763129282466,0.8644072,6.515058,8.233105,-1.6061162,0.75930494,-0.27504188,0.3352259,-0.3265249,-0.7436943,4.5,-32.362503,-27.187502
1763129282477,0.8644072,6.515058,8.233105,-1.6061162,0.75930494,-0.27504188,0.3352259,-0.3265249,-0.7436943,2.5875,-33.787502,-28.725
1763129282484,0.8644072,6.515058,8.233105,-1.6061162,0.75930494,-0.27504188,0.32670775,-0.31677118,-0.75392634,2.5875,-33.787502,-28.725
1763129282484,0.8644072,6.515058,8.233105,-1.2980876,-0.20387612,-0.5685624,0.32670775,-0.31677118,-0.75392634,2.5875,-33.787502,-28.725
1763129282485,0.8967103,5.715855,7.239485,-1.2980876,-0.20387612,-0.5685624,0.32670775,-0.31677118,-0.75392634,2.5875,-33.787502,-28.725
1763129282498,0.8967103,5.715855,7.239485,-1.2980876,-0.20387612,-0.5685624,0.32670775,-0.31677118,-0.75392634,3.9562502,-32.831253,-27.675001
1763129282506,0.8967103,5.715855,7.239485,-0.892168,0.320704,-0.7072287,0.32670775,-0.31677118,-0.75392634,3.9562502,-32.831253,-27.675001
1763129282506,-1.8077775,6.5551376,6.250053,-0.892168,0.320704,-0.7072287,0.32670775,-0.31677118,-0.75392634,3.9562502,-32.831253,-27.675001
1763129282518,-1.8077775,6.5551376,6.250053,-0.892168,0.320704,-0.7072287,0.32512882,-0.30693346,-0.76122224,3.9562502,-32.831253,-27.675001
1763129282519,-1.8077775,6.5551376,6.250053,-0.892168,0.320704,-0.7072287,0.32512882,-0.30693346,-0.76122224,1.9312501,-31.368752,-28.650002
1763129282526,-1.8077775,6.5551376,6.250053,-0.5235111,0.0067195124,-0.21242823,0.32512882,-0.30693346,-0.76122224,1.9312501,-31.368752,-28.650002
1763129282527,-3.6131623,6.995417,5.500501,-0.5235111,0.0067195124,-0.21242823,0.32512882,-0.30693346,-0.76122224,1.9312501,-31.368752,-28.650002
1763129282537,-3.6131623,6.995417,5.500501,-0.5235111,0.0067195124,-0.21242823,0.32283184,-0.30219254,-0.76448506,1.9312501,-31.368752,-28.650002
1763129282538,-3.6131623,6.995417,5.500501,-0.5235111,0.0067195124,-0.21242823,0.32283184,-0.30219254,-0.76448506,3.1875002,-31.237501,-27.712502
1763129282548,-3.6131623,6.995417,5.500501,-0.2849684,-0.1725693,0.32162032,0.32283184,-0.30219254,-0.76448506,3.1875002,-31.237501,-27.712502
1763129282548,-3.1950164,8.0715885,5.8229337,-0.2849684,-0.1725693,0.32162032,0.32283184,-0.30219254,-0.76448506,3.1875002,-31.237501,-27.712502
1763129282557,-3.1950164,8.0715885,5.8229337,-0.2849684,-0.1725693,0.32162032,0.31963128,-0.30132255,-0.7640053,3.1875002,-31.237501,-27.712502
1763129282558,-3.1950164,8.0715885,5.8229337,-0.2849684,-0.1725693,0.32162032,0.31963128,-0.30132255,-0.7640053,3.1875002,-29.643751,-28.143751
1763129282568,-3.1950164,8.0715885,5.8229337,-0.21364996,-0.17577635,0.41309732,0.31963128,-0.30132255,-0.7640053,3.1875002,-29.643751,-28.143751
1763129282568,-1.5601203,8.656036,6.48096,-0.21364996,-0.17577635,0.41309732,0.31963128,-0.30132255,-0.7640053,3.1875002,-29.643751,-28.143751
1763129282578,-1.5601203,8.656036,6.48096,-0.21364996,-0.17577635,0.41309732,0.31651896,-0.3014109,-0.7626208,3.1875002,-29.643751,-28.143751
1763129282579,-1.5601203,8.656036,6.48096,-0.21364996,-0.17577635,0.41309732,0.31651896,-0.3014109,-0.7626208,2.9250002,-32.100002,-27.2625
1763129282590,-1.5601203,8.656036,6.48096,-0.19776747,-0.015577052,0.13500112,0.31651896,-0.3014109,-0.7626208,2.9250002,-32.100002,-27.2625
1763129282591,-0.7531409,8.10808,6.550352,-0.19776747,-0.015577052,0.13500112,0.31651896,-0.3014109,-0.7626208,2.9250002,-32.100002,-27.2625
1763129282598,-0.7531409,8.10808,6.550352,-0.19776747,-0.015577052,0.13500112,0.31503275,-0.3004172,-0.76240164,2.9250002,-32.100002,-27.2625
1763129282599,-0.7531409,8.10808,6.550352,-0.19776747,-0.015577052,0.13500112,0.31503275,-0.3004172,-0.76240164,2.9250002,-32.100002,-27.2625
1763129282611,-0.7531409,8.10808,6.550352,-0.14202607,0.051618073,-0.111635536,0.31503275,-0.3004172,-0.76240164,2.9250002,-32.100002,-27.2625
1763129282611,-1.2711871,7.8311105,6.093921,-0.14202607,0.051618073,-0.111635536,0.31503275,-0.3004172,-0.76240164,2.9250002,-32.100002,-27.2625
1763129282618,-1.2711871,7.8311105,6.093921,-0.14202607,0.051618073,-0.111635536,0.31471813,-0.29899803,-0.7634002,2.9250002,-32.100002,-27.2625
1763129282619,-1.2711871,7.8311105,6.093921,-0.14202607,0.051618073,-0.111635536,0.31471813,-0.29899803,-0.7634002,3.2250001,-30.750002,-27.375002
1763129282632,-1.2711871,7.8311105,6.093921,-0.054825112,-0.020922119,-0.19288056,0.31471813,-0.29899803,-0.7634002,3.2250001,-30.750002,-27.375002
1763129282633,-1.878964,7.9710903,5.9324055,-0.054825112,-0.020922119,-0.19288056,0.31471813,-0.29899803,-0.7634002,3.2250001,-30.750002,-27.375002
1763129282637,-1.878964,7.9710903,5.9324055,-0.054825112,-0.020922119,-0.19288056,0.31479594,-0.29817027,-0.76453954,3.2250001,-30.750002,-27.375002
1763129282638,-1.878964,7.9710903,5.9324055,-0.054825112,-0.020922119,-0.19288056,0.31479594,-0.29817027,-0.76453954,3.16875,-31.743752,-29.868752
1763129282652,-1.878964,7.9710903,5.9324055,-0.049480047,-0.05894845,-0.28267768,0.31479594,-0.29817027,-0.76453954,3.16875,-31.743752,-29.868752
1763129282654,-1.777269,7.8281193,5.916254,-0.049480047,-0.05894845,-0.28267768,0.31479594,-0.29817027,-0.76453954,3.16875,-31.743752,-29.868752
1763129282658,-1.777269,7.8281193,5.916254,-0.049480047,-0.05894845,-0.28267768,0.3151673,-0.2970739,-0.76597756,3.16875,-31.743752,-29.868752
1763129282660,-1.777269,7.8281193,5.916254,-0.049480047,-0.05894845,-0.28267768,0.3151673,-0.2970739,-0.76597756,4.275,-28.425001,-28.743752
1763129282673,-1.777269,7.8281193,5.916254,-0.1036943,-1.5958842,-0.19410229,0.3151673,-0.2970739,-0.76597756,4.275,-28.425001,-28.743752
1763129282674,-1.5541383,5.4634123,-0.010767702,-0.1036943,-1.5958842,-0.19410229,0.3151673,-0.2970739,-0.76597756,4.275,-28.425001,-28.743752
1763129282678,-1.5541383,5.4634123,-0.010767702,-0.1036943,-1.5958842,-0.19410229,0.3151673,-0.2970739,-0.76597756,2.0812502,-30.54375,-29.8875
1763129282680,-1.5541383,5.4634123,-0.010767702,-0.1036943,-1.5958842,-0.19410229,0.30261803,-0.30342874,-0.77210927,2.0812502,-30.54375,-29.8875
1763129282695,-1.5541383,5.4634123,-0.010767702,-0.72463834,-3.6357145,-0.1385136,0.30261803,-0.30342874,-0.77210927,2.0812502,-30.54375,-29.8875
1763129282696,-1.878964,8.282756,2.8073792,-0.72463834,-3.6357145,-0.1385136,0.30261803,-0.30342874,-0.77210927,2.0812502,-30.54375,-29.8875
1763129282698,-1.878964,8.282756,2.8073792,-0.72463834,-3.6357145,-0.1385136,0.27197796,-0.31404784,-0.7835445,2.0812502,-30.54375,-29.8875
1763129282700,-1.878964,8.282756,2.8073792,-0.72463834,-3.6357145,-0.1385136,0.27197796,-0.31404784,-0.7835445,0.09375,-29.400002,-28.968752
1763129282715,-1.878964,8.282756,2.8073792,-1.2391392,-1.7791437,-0.40607235,0.27197796,-0.31404784,-0.7835445,0.09375,-29.400002,-28.968752
1763129282716,-1.9974087,9.037093,8.726026,-1.2391392,-1.7791437,-0.40607235,0.27197796,-0.31404784,-0.7835445,0.09375,-29.400002,-28.968752
1763129282719,-1.9974087,9.037093,8.726026,-1.2391392,-1.7791437,-0.40607235,0.25474828,-0.31063142,-0.7920134,0.09375,-29.400002,-28.968752
1763129282720,-1.9974087,9.037093,8.726026,-1.2391392,-1.7791437,-0.40607235,0.25474828,-0.31063142,-0.7920134,-1.95,-30.337502,-27.50625
1763129282738,-1.9974087,9.037093,8.726026,-0.811992,-1.5167773,-0.320704,0.25474828,-0.31063142,-0.7920134,-1.95,-30.337502,-27.50625
1763129282743,-1.9974087,9.037093,8.726026,-0.811992,-1.5167773,-0.320704,0.23951848,-0.31009278,-0.7999333,-1.95,-30.337502,-27.50625
1763129282745,0.7531409,6.634699,8.356933,-0.811992,-1.5167773,-0.320704,0.23951848,-0.31009278,-0.7999333,-1.95,-30.337502,-27.50625
1763129282746,0.7531409,6.634699,8.356933,-0.811992,-1.5167773,-0.320704,0.23951848,-0.31009278,-0.7999333,-3.3750002,-30.843752,-29.00625
1763129282761,0.7531409,6.634699,8.356933,-0.811992,-1.5167773,-0.320704,0.23951848,-0.31009278,-0.7999333,-4.6312504,-31.125002,-27.487501
1763129282763,0.7531409,6.634699,8.356933,-0.811992,-1.5167773,-0.320704,0.2308747,-0.31126335,-0.8068967,-4.6312504,-31.125002,-27.487501
1763129282763,0.7531409,6.634699,8.356933,-0.28542656,-0.9173662,-0.5404626,0.2308747,-0.31126335,-0.8068967,-4.6312504,-31.125002,-27.487501
1763129282765,-0.096909314,6.047859,7.5433736,-0.28542656,-0.9173662,-0.5404626,0.2308747,-0.31126335,-0.8068967,-4.6312504,-31.125002,-27.487501
1763129282779,-0.096909314,6.047859,7.5433736,-0.28542656,-0.9173662,-0.5404626,0.22150488,-0.3158613,-0.81248313,-4.6312504,-31.125002,-27.487501
1763129282780,-0.096909314,6.047859,7.5433736,-0.28542656,-0.9173662,-0.5404626,0.22150488,-0.3158613,-0.81248313,-5.2312503,-31.425001,-27.431252
1763129282782,-0.096909314,6.047859,7.5433736,-0.0059559317,-1.1682789,-0.4253146,0.22150488,-0.3158613,-0.81248313,-5.2312503,-31.425001,-27.431252
1763129282784,-1.7820547,6.337391,5.3216376,-0.0059559317,-1.1682789,-0.4253146,0.22150488,-0.3158613,-0.81248313,-5.2312503,-31.425001,-27.431252
1763129282797,-1.7820547,6.337391,5.3216376,-0.0059559317,-1.1682789,-0.4253146,0.22150488,-0.3158613,-0.81248313,-5.175,-30.13125,-27.91875
1763129282800,-1.7820547,6.337391,5.3216376,-0.0059559317,-1.1682789,-0.4253146,0.20881157,-0.32088283,-0.8162411,-5.175,-30.13125,-27.91875
1763129282801,-1.7820547,6.337391,5.3216376,-0.16478078,-1.5412118,-0.10476331,0.20881157,-0.32088283,-0.8162411,-5.175,-30.13125,-27.91875
1763129282801,-1.6971095,6.71426,6.1716876,-0.16478078,-1.5412118,-0.10476331,0.20881157,-0.32088283,-0.8162411,-5.175,-30.13125,-27.91875
1763129282818,-1.6971095,6.71426,6.1716876,-0.16478078,-1.5412118,-0.10476331,0.20881157,-0.32088283,-0.8162411,-7.5000005,-30.825,-27.50625
1763129282821,-0.23449662,6.9361944,7.9651084,-0.16478078,-1.5412118,-0.10476331,0.20881157,-0.32088283,-0.8162411,-7.5000005,-30.825,-27.50625
1763129282822,-0.23449662,6.9361944,7.9651084,-0.38957903,-1.5476259,0.066736974,0.20881157,-0.32088283,-0.8162411,-7.5000005,-30.825,-27.50625
1763129282823,-0.23449662,6.9361944,7.9651084,-0.38957903,-1.5476259,0.066736974,0.19434859,-0.32432768,-0.8199027,-7.5000005,-30.825,-27.50625
1763129282838,-0.23449662,6.9361944,7.9651084,-0.38957903,-1.5476259,0.066736974,0.19434859,-0.32432768,-0.8199027,-5.6625004,-28.781252,-26.737501
1763129282841,-0.23449662,6.9361944,7.9651084,-0.3724748,-1.2944225,0.059712034,0.19434859,-0.32432768,-0.8199027,-5.6625004,-28.781252,-26.737501
1763129282843,-0.23449662,6.9361944,7.9651084,-0.3724748,-1.2944225,0.059712034,0.1810781,-0.32703626,-0.8237367,-5.6625004,-28.781252,-26.737501
1763129282844,0.70229346,7.312466,8.608179,-0.3724748,-1.2944225,0.059712034,0.1810781,-0.32703626,-0.8237367,-5.6625004,-28.781252,-26.737501
1763129282860,0.70229346,7.312466,8.608179,-0.3724748,-1.2944225,0.059712034,0.1810781,-0.32703626,-0.8237367,-6.9750004,-30.056252,-27.862501
1763129282864,0.70229346,7.312466,8.608179,-0.28970262,-0.8516982,-0.12996148,0.1810781,-0.32703626,-0.8237367,-6.9750004,-30.056252,-27.862501
1763129282865,0.70229346,7.312466,8.608179,-0.28970262,-0.8516982,-0.12996148,0.17220618,-0.32825735,-0.8274468,-6.9750004,-30.056252,-27.862501
1763129282866,0.3062813,7.283752,7.7497544,-0.28970262,-0.8516982,-0.12996148,0.17220618,-0.32825735,-0.8274468,-6.9750004,-30.056252,-27.862501
1763129282877,0.3062813,7.283752,7.7497544,-0.28970262,-0.8516982,-0.12996148,0.17220618,-0.32825735,-0.8274468,-10.63125,-31.218752,-26.962502
1763129282885,0.3062813,7.283752,7.7497544,-0.28970262,-0.8516982,-0.12996148,0.16698886,-0.32588726,-0.8307822,-10.63125,-31.218752,-26.962502
1763129282886,0.3062813,7.283752,7.7497544,-0.4592176,-0.43233955,-0.20708317,0.16698886,-0.32588726,-0.8307822,-10.63125,-31.218752,-26.962502
1763129282889,-0.52522457,6.8099732,6.5838513,-0.4592176,-0.43233955,-0.20708317,0.16698886,-0.32588726,-0.8307822,-10.63125,-31.218752,-26.962502
1763129282897,-0.52522457,6.8099732,6.5838513,-0.4592176,-0.43233955,-0.20708317,0.16698886,-0.32588726,-0.8307822,-9.356251,-30.45,-26.79375
1763129282905,-0.52522457,6.8099732,6.5838513,-0.4592176,-0.43233955,-0.20708317,0.15979286,-0.32065943,-0.8335661,-9.356251,-30.45,-26.79375
1763129282906,-1.0277174,6.2757754,6.227321,-0.4592176,-0.43233955,-0.20708317,0.15979286,-0.32065943,-0.8335661,-9.356251,-30.45,-26.79375
1763129282907,-1.0277174,6.2757754,6.227321,-0.82420933,-0.4470003,0.06307179,0.15979286,-0.32065943,-0.8335661,-9.356251,-30.45,-26.79375
1763129282919,-1.0277174,6.2757754,6.227321,-0.82420933,-0.4470003,0.06307179,0.15979286,-0.32065943,-0.8335661,-10.78125,-30.300001,-27.393751
1763129282926,-1.0277174,6.2757754,6.227321,-1.1939352,-0.51327914,0.41722065,0.15979286,-0.32065943,-0.8335661,-10.78125,-30.300001,-27.393751
1763129282926,-0.7046863,6.1477594,6.050252,-1.1939352,-0.51327914,0.41722065,0.15979286,-0.32065943,-0.8335661,-10.78125,-30.300001,-27.393751
1763129282939,-0.7046863,6.1477594,6.050252,-1.1939352,-0.51327914,0.41722065,0.14946629,-0.312921,-0.8358056,-10.78125,-30.300001,-27.393751
1763129282940,-0.7046863,6.1477594,6.050252,-1.1939352,-0.51327914,0.41722065,0.14946629,-0.312921,-0.8358056,-10.875,-29.025002,-26.250002
1763129282946,-0.7046863,6.1477594,6.050252,-1.4769183,-0.50121456,0.64171344,0.14946629,-0.312921,-0.8358056,-10.875,-29.025002,-26.250002
1763129282947,-0.026919255,6.235696,6.6855464,-1.4769183,-0.50121456,0.64171344,0.14946629,-0.312921,-0.8358056,-10.875,-29.025002,-26.250002
1763129282957,-0.026919255,6.235696,6.6855464,-1.4769183,-0.50121456,0.64171344,0.13721117,-0.30302057,-0.8376321,-10.875,-29.025002,-26.250002
1763129282958,-0.026919255,6.235696,6.6855464,-1.4769183,-0.50121456,0.64171344,0.13721117,-0.30302057,-0.8376321,-9.993751,-27.375002,-26.8875
1763129282968,-0.026919255,6.235696,6.6855464,-1.4155264,-0.46196648,0.6734784,0.13721117,-0.30302057,-0.8376321,-9.993751,-27.375002,-26.8875
1763129282969,1.2239288,6.2931237,8.918648,-1.4155264,-0.46196648,0.6734784,0.13721117,-0.30302057,-0.8376321,-9.993751,-27.375002,-26.8875
1763129282977,1.2239288,6.2931237,8.918648,-1.4155264,-0.46196648,0.6734784,0.12515302,-0.29358342,-0.83897394,-9.993751,-27.375002,-26.8875
1763129282978,1.2239288,6.2931237,8.918648,-1.4155264,-0.46196648,0.6734784,0.12515302,-0.29358342,-0.83897394,-12.056251,-27.862501,-27.975
1763129282988,1.2239288,6.2931237,8.918648,-0.881936,0.014966187,0.4327977,0.12515302,-0.29358342,-0.83897394,-12.056251,-27.862501,-27.975
1763129282989,1.3196417,6.203991,9.817153,-0.881936,0.014966187,0.4327977,0.12515302,-0.29358342,-0.83897394,-12.056251,-27.862501,-27.975
1763129282997,1.3196417,6.203991,9.817153,-0.881936,0.014966187,0.4327977,0.11952714,-0.2864086,-0.83990026,-12.056251,-27.862501,-27.975
1763129282998,1.3196417,6.203991,9.817153,-0.881936,0.014966187,0.4327977,0.11952714,-0.2864086,-0.83990026,-12.056251,-28.0125,-27.018751
1763129283009,1.3196417,6.203991,9.817153,-0.20295982,0.69653857,0.09560034,0.11952714,-0.2864086,-0.83990026,-12.056251,-28.0125,-27.018751
1763129283010,0.81954175,6.0107703,9.598209,-0.20295982,0.69653857,0.09560034,0.11952714,-0.2864086,-0.83990026,-12.056251,-28.0125,-27.018751
1763129283019,0.81954175,6.0107703,9.598209,-0.20295982,0.69653857,0.09560034,0.123793796,-0.28157717,-0.8397917,-12.056251,-28.0125,-27.018751
1763129283020,0.81954175,6.0107703,9.598209,-0.20295982,0.69653857,0.09560034,0.123793796,-0.28157717,-0.8397917,-10.78125,-27.900002,-28.031252
1763129283031,0.81954175,6.0107703,9.598209,0.2073886,1.0778708,0.00763581,0.123793796,-0.28157717,-0.8397917,-10.78125,-27.900002,-28.031252
1763129283032,0.044865426,5.005785,8.565108,0.2073886,1.0778708,0.00763581,0.123793796,-0.28157717,-0.8397917,-10.78125,-27.900002,-28.031252
1763129283038,0.044865426,5.005785,8.565108,0.2073886,1.0778708,0.00763581,0.13370009,-0.278389,-0.83826894,-10.78125,-27.900002,-28.031252
1763129283039,0.044865426,5.005785,8.565108,0.2073886,1.0778708,0.00763581,0.13370009,-0.278389,-0.83826894,-13.275001,-29.906252,-27.6375
1763129283051,0.044865426,5.005785,8.565108,0.32146758,1.2116503,0.29596397,0.13370009,-0.278389,-0.83826894,-13.275001,-29.906252,-27.6375
1763129283052,-0.17048861,4.3465624,7.8370924,0.32146758,1.2116503,0.29596397,0.13370009,-0.278389,-0.83826894,-13.275001,-29.906252,-27.6375
1763129283058,-0.17048861,4.3465624,7.8370924,0.32146758,1.2116503,0.29596397,0.14458779,-0.27583075,-0.8347296,-13.275001,-29.906252,-27.6375
1763129283059,-0.17048861,4.3465624,7.8370924,0.32146758,1.2116503,0.29596397,0.14458779,-0.27583075,-0.8347296,-9.056251,-26.681252,-27.843752
1763129283072,-0.17048861,4.3465624,7.8370924,0.18173227,0.7669407,0.55695593,0.14458779,-0.27583075,-0.8347296,-9.056251,-26.681252,-27.843752
1763129283074,-0.4959125,5.0662036,6.2961144,0.18173227,0.7669407,0.55695593,0.14458779,-0.27583075,-0.8347296,-9.056251,-26.681252,-27.843752
1763129283078,-0.4959125,5.0662036,6.2961144,0.18173227,0.7669407,0.55695593,0.15014482,-0.27450833,-0.8309571,-9.056251,-26.681252,-27.843752
1763129283079,-0.4959125,5.0662036,6.2961144,0.18173227,0.7669407,0.55695593,0.15014482,-0.27450833,-0.8309571,-9.1125,-27.187502,-27.281252
1763129283094,-0.4959125,5.0662036,6.2961144,0.013591741,-0.5882628,0.81321377,0.15014482,-0.27450833,-0.8309571,-9.1125,-27.187502,-27.281252
1763129283095,-0.72442704,5.296513,7.0672016,0.013591741,-0.5882628,0.81321377,0.15014482,-0.27450833,-0.8309571,-9.1125,-27.187502,-27.281252
1763129283099,-0.72442704,5.296513,7.0672016,0.013591741,-0.5882628,0.81321377,0.15014482,-0.27450833,-0.8309571,-9.20625,-28.1625,-27.35625
1763129283100,-0.72442704,5.296513,7.0672016,0.013591741,-0.5882628,0.81321377,0.1431492,-0.27862057,-0.8274887,-9.20625,-28.1625,-27.35625
1763129283114,0.06819545,5.6913285,8.842676,0.013591741,-0.5882628,0.81321377,0.1431492,-0.27862057,-0.8274887,-9.20625,-28.1625,-27.35625
1763129283115,0.06819545,5.6913285,8.842676,0.07513637,-0.7573196,0.9873102,0.1431492,-0.27862057,-0.8274887,-9.20625,-28.1625,-27.35625
1763129283118,0.06819545,5.6913285,8.842676,0.07513637,-0.7573196,0.9873102,0.1431492,-0.27862057,-0.8274887,-10.931251,-29.362501,-27.093752
1763129283119,0.06819545,5.6913285,8.842676,0.07513637,-0.7573196,0.9873102,0.13452126,-0.28420234,-0.823169,-10.931251,-29.362501,-27.093752
1763129283135,0.06819545,5.6913285,8.842676,0.29184064,-0.25686863,0.9164499,0.13452126,-0.28420234,-0.823169,-10.931251,-29.362501,-27.093752
1763129283137,0.48215377,5.7056856,9.318848,0.29184064,-0.25686863,0.9164499,0.13452126,-0.28420234,-0.823169,-10.931251,-29.362501,-27.093752
1763129283139,0.48215377,5.7056856,9.318848,0.29184064,-0.25686863,0.9164499,0.13091394,-0.28909922,-0.81836224,-10.931251,-29.362501,-27.093752
1763129283140,0.48215377,5.7056856,9.318848,0.29184064,-0.25686863,0.9164499,0.13091394,-0.28909922,-0.81836224,-10.125,-26.456251,-28.06875
1763129283156,0.48215377,5.7056856,9.318848,0.41890052,0.27336198,0.62292933,0.13091394,-0.28909922,-0.81836224,-10.125,-26.456251,-28.06875
1763129283158,0.5341976,5.8881383,8.675179,0.41890052,0.27336198,0.62292933,0.13091394,-0.28909922,-0.81836224,-10.125,-26.456251,-28.06875
1763129283160,0.5341976,5.8881383,8.675179,0.41890052,0.27336198,0.62292933,0.13307208,-0.29204535,-0.8141662,-10.125,-26.456251,-28.06875
1763129283161,0.5341976,5.8881383,8.675179,0.41890052,0.27336198,0.62292933,0.13307208,-0.29204535,-0.8141662,-9.431251,-24.656252,-25.312502
1763129283179,0.5341976,5.8881383,8.675179,0.41890052,0.27336198,0.62292933,0.13705158,-0.2938974,-0.81095296,-9.431251,-24.656252,-25.312502
1763129283180,0.5341976,5.8881383,8.675179,0.39645123,0.38545567,0.35491243,0.13705158,-0.2938974,-0.81095296,-9.431251,-24.656252,-25.312502
1763129283181,0.5341976,5.8881383,8.675179,0.39645123,0.38545567,0.35491243,0.13705158,-0.2938974,-0.81095296,-10.2375,-27.431252,-26.175001
1763129283182,0.2440679,5.8707905,8.183454,0.39645123,0.38545567,0.35491243,0.13705158,-0.2938974,-0.81095296,-10.2375,-27.431252,-26.175001
1763129283198,0.2440679,5.8707905,8.183454,0.41462448,0.45112363,0.38545567,0.13705158,-0.2938974,-0.81095296,-10.2375,-27.431252,-26.175001
1763129283199,0.2440679,5.8707905,8.183454,0.41462448,0.45112363,0.38545567,0.14176561,-0.29556635,-0.80720836,-10.2375,-27.431252,-26.175001
1763129283200,0.24107689,5.9007006,7.57448,0.41462448,0.45112363,0.38545567,0.14176561,-0.29556635,-0.80720836,-10.2375,-27.431252,-26.175001
1763129283202,0.24107689,5.9007006,7.57448,0.41462448,0.45112363,0.38545567,0.14176561,-0.29556635,-0.80720836,-9.056251,-25.3875,-25.462502
1763129283218,0.24107689,5.9007006,7.57448,0.41462448,0.45112363,0.38545567,0.14176561,-0.29556635,-0.80720836,-9.975,-27.375002,-27.487501
1763129283219,0.24107689,5.9007006,7.57448,0.41462448,0.45112363,0.38545567,0.14576125,-0.29730117,-0.80326456,-9.975,-27.375002,-27.487501
1763129283222,0.24107689,5.9007006,7.57448,0.37614,0.38713557,0.4196641,0.14576125,-0.29730117,-0.80326456,-9.975,-27.375002,-27.487501
1763129283223,0.4833502,6.3140607,7.4141607,0.37614,0.38713557,0.4196641,0.14576125,-0.29730117,-0.80326456,-9.975,-27.375002,-27.487501
1763129283237,0.4833502,6.3140607,7.4141607,0.37614,0.38713557,0.4196641,0.14576125,-0.29730117,-0.80326456,-8.606251,-25.612501,-27.843752
1763129283240,0.64247286,6.3397837,7.7593255,0.37614,0.38713557,0.4196641,0.14576125,-0.29730117,-0.80326456,-8.606251,-25.612501,-27.843752
1763129283241,0.64247286,6.3397837,7.7593255,0.33001968,0.4298961,0.3016145,0.14576125,-0.29730117,-0.80326456,-8.606251,-25.612501,-27.843752
1763129283243,0.64247286,6.3397837,7.7593255,0.33001968,0.4298961,0.3016145,0.15030351,-0.29829708,-0.79981095,-8.606251,-25.612501,-27.843752
1763129283258,0.64247286,6.3397837,7.7593255,0.33001968,0.4298961,0.3016145,0.15030351,-0.29829708,-0.79981095,-7.9125004,-26.737501,-26.8875
1763129283262,0.64247286,6.3397837,7.7593255,0.33001968,0.4298961,0.3016145,0.15566705,-0.29936743,-0.79667515,-7.9125004,-26.737501,-26.8875
1763129283263,0.64247286,6.3397837,7.7593255,0.38744098,0.4876228,0.22418737,0.15566705,-0.29936743,-0.79667515,-7.9125004,-26.737501,-26.8875
1763129283264,0.4833502,6.2488565,7.4386873,0.38744098,0.4876228,0.22418737,0.15566705,-0.29936743,-0.79667515,-7.9125004,-26.737501,-26.8875
1763129283278,0.4833502,6.2488565,7.4386873,0.38744098,0.4876228,0.22418737,0.15566705,-0.29936743,-0.79667515,-8.475,-27.187502,-26.94375
1763129283282,0.4833502,6.2488565,7.4386873,0.38744098,0.4876228,0.22418737,0.16116065,-0.30119514,-0.7929078,-8.475,-27.187502,-26.94375
1763129283283,0.4833502,6.2488565,7.4386873,0.4555524,0.40042186,0.19776747,0.16116065,-0.30119514,-0.7929078,-8.475,-27.187502,-26.94375
1763129283284,0.5778667,6.4331036,7.092326,0.4555524,0.40042186,0.19776747,0.16116065,-0.30119514,-0.7929078,-8.475,-27.187502,-26.94375
1763129283297,0.5778667,6.4331036,7.092326,0.4555524,0.40042186,0.19776747,0.16116065,-0.30119514,-0.7929078,-7.7812505,-25.9125,-28.125002
1763129283304,0.5778667,6.4331036,7.092326,0.4555524,0.40042186,0.19776747,0.16647896,-0.30296886,-0.78923297,-7.7812505,-25.9125,-28.125002
1763129283305,0.5778667,6.4331036,7.092326,0.43554658,0.36987862,0.16508621,0.16647896,-0.30296886,-0.78923297,-7.7812505,-25.9125,-28.125002
1763129283307,0.6029913,6.5001025,6.7986073,0.43554658,0.36987862,0.16508621,0.16647896,-0.30296886,-0.78923297,-7.7812505,-25.9125,-28.125002
1763129283319,0.6029913,6.5001025,6.7986073,0.43554658,0.36987862,0.16508621,0.16647896,-0.30296886,-0.78923297,-7.6312504,-26.7,-29.400002
1763129283324,0.6029913,6.5001025,6.7986073,0.43554658,0.36987862,0.16508621,0.17086706,-0.30413237,-0.78629786,-7.6312504,-26.7,-29.400002
1763129283325,0.6029913,6.5001025,6.7986073,0.33215773,0.3573559,0.16844596,0.17086706,-0.30413237,-0.78629786,-7.6312504,-26.7,-29.400002
1763129283326,0.6089734,6.645467,6.5838513,0.33215773,0.3573559,0.16844596,0.17086706,-0.30413237,-0.78629786,-7.6312504,-26.7,-29.400002
1763129283338,0.6089734,6.645467,6.5838513,0.33215773,0.3573559,0.16844596,0.17086706,-0.30413237,-0.78629786,-7.2937503,-26.60625,-27.806252
1763129283345,0.6089734,6.645467,6.5838513,0.10155627,0.4506655,0.11911863,0.17086706,-0.30413237,-0.78629786,-7.2937503,-26.60625,-27.806252
1763129283346,0.70348984,6.8662047,6.515058,0.10155627,0.4506655,0.11911863,0.17086706,-0.30413237,-0.78629786,-7.2937503,-26.60625,-27.806252
1763129283358,0.70348984,6.8662047,6.515058,0.10155627,0.4506655,0.11911863,0.1750224,-0.30280912,-0.7840464,-7.2937503,-26.60625,-27.806252
1763129283359,0.70348984,6.8662047,6.515058,0.10155627,0.4506655,0.11911863,0.1750224,-0.30280912,-0.7840464,-6.20625,-27.000002,-27.825
1763129283368,0.36729828,6.7525454,6.3014984,0.10155627,0.4506655,0.11911863,0.1750224,-0.30280912,-0.7840464,-6.20625,-27.000002,-27.825
1763129283370,0.36729828,6.7525454,6.3014984,-0.11102467,0.491288,0.09682207,0.1750224,-0.30280912,-0.7840464,-6.20625,-27.000002,-27.825
1763129283378,0.36729828,6.7525454,6.3014984,-0.11102467,0.491288,0.09682207,0.17855878,-0.2994534,-0.78224385,-6.20625,-27.000002,-27.825
1763129283379,0.36729828,6.7525454,6.3014984,-0.11102467,0.491288,0.09682207,0.17855878,-0.2994534,-0.78224385,-8.38125,-27.806252,-26.587502
1763129283387,0.36729828,6.7525454,6.3014984,-0.14553854,0.25686863,0.14645483,0.17855878,-0.2994534,-0.78224385,-8.38125,-27.806252,-26.587502
1763129283388,0.07776674,6.629315,6.489335,-0.14553854,0.25686863,0.14645483,0.17855878,-0.2994534,-0.78224385,-8.38125,-27.806252,-26.587502
1763129283397,0.07776674,6.629315,6.489335,-0.14553854,0.25686863,0.14645483,0.1798468,-0.29716945,-0.7807877,-8.38125,-27.806252,-26.587502
1763129283398,0.07776674,6.629315,6.489335,-0.14553854,0.25686863,0.14645483,0.1798468,-0.29716945,-0.7807877,-8.981251,-27.956251,-27.487501
1763129283411,0.07776674,6.629315,6.489335,-0.07971785,0.06536253,0.16203189,0.1798468,-0.29716945,-0.7807877,-8.981251,-27.956251,-27.487501
1763129283412,0.31286156,6.567102,7.2562346,-0.07971785,0.06536253,0.16203189,0.1798468,-0.29716945,-0.7807877,-8.981251,-27.956251,-27.487501
1763129283419,0.31286156,6.567102,7.2562346,-0.07971785,0.06536253,0.16203189,0.179656,-0.2965642,-0.77985895,-8.981251,-27.956251,-27.487501
1763129283420,0.31286156,6.567102,7.2562346,-0.07971785,0.06536253,0.16203189,0.179656,-0.2965642,-0.77985895,-7.5000005,-26.962502,-26.400002
1763129283429,0.31286156,6.567102,7.2562346,-0.06368265,0.19074252,0.12110394,0.179656,-0.2965642,-0.77985895,-7.5000005,-26.962502,-26.400002
1763129283430,0.48993045,6.3601227,7.679166,-0.06368265,0.19074252,0.12110394,0.179656,-0.2965642,-0.77985895,-7.5000005,-26.962502,-26.400002
1763129283438,0.48993045,6.3601227,7.679166,-0.06368265,0.19074252,0.12110394,0.18025109,-0.29545513,-0.779487,-7.5000005,-26.962502,-26.400002
1763129283439,0.48993045,6.3601227,7.679166,-0.06368265,0.19074252,0.12110394,0.18025109,-0.29545513,-0.779487,-7.2000003,-26.268751,-28.48125
1763129283451,0.48993045,6.3601227,7.679166,-0.07467822,0.36071566,0.10980295,0.18025109,-0.29545513,-0.779487,-7.2000003,-26.268751,-28.48125
1763129283452,0.2955136,6.2691956,7.4512496,-0.07467822,0.36071566,0.10980295,0.18025109,-0.29545513,-0.779487,-7.2000003,-26.268751,-28.48125
1763129283460,0.2955136,6.2691956,7.4512496,-0.07467822,0.36071566,0.10980295,0.18025109,-0.29545513,-0.779487,-6.15,-25.687502,-28.0125
1763129283461,0.2955136,6.2691956,7.4512496,-0.07467822,0.36071566,0.10980295,0.18233535,-0.29311076,-0.7785096,-6.15,-25.687502,-28.0125
1763129283471,0.2955136,6.2691956,7.4512496,-0.04657844,0.28435755,0.14355323,0.18233535,-0.29311076,-0.7785096,-6.15,-25.687502,-28.0125
1763129283472,0.02871387,6.3248286,7.2849483,-0.04657844,0.28435755,0.14355323,0.18233535,-0.29311076,-0.7785096,-6.15,-25.687502,-28.0125
1763129283477,0.02871387,6.3248286,7.2849483,-0.04657844,0.28435755,0.14355323,0.18391077,-0.29146063,-0.777359,-6.15,-25.687502,-28.0125
1763129283479,0.02871387,6.3248286,7.2849483,-0.04657844,0.28435755,0.14355323,0.18391077,-0.29146063,-0.777359,-6.1125,-26.00625,-27.91875
1763129283493,0.02871387,6.3248286,7.2849483,0.060017463,0.091782436,0.13942988,0.18391077,-0.29146063,-0.777359,-6.1125,-26.00625,-27.91875
1763129283495,0.18664017,6.5814586,7.460821,0.060017463,0.091782436,0.13942988,0.18391077,-0.29146063,-0.777359,-6.1125,-26.00625,-27.91875
1763129283498,0.18664017,6.5814586,7.460821,0.060017463,0.091782436,0.13942988,0.18467034,-0.29167253,-0.77612585,-6.1125,-26.00625,-27.91875
1763129283499,0.18664017,6.5814586,7.460821,0.060017463,0.091782436,0.13942988,0.18467034,-0.29167253,-0.77612585,-7.1062503,-27.69375,-28.218752
1763129283513,0.28414768,6.544968,7.4446692,0.060017463,0.091782436,0.13942988,0.18467034,-0.29167253,-0.77612585,-7.1062503,-27.69375,-28.218752
1763129283514,0.28414768,6.544968,7.4446692,0.12599087,0.045051277,0.04016436,0.18467034,-0.29167253,-0.77612585,-7.1062503,-27.69375,-28.218752
1763129283519,0.28414768,6.544968,7.4446692,0.12599087,0.045051277,0.04016436,0.18569231,-0.29251957,-0.77532077,-7.1062503,-27.69375,-28.218752
1763129283520,0.28414768,6.544968,7.4446692,0.12599087,0.045051277,0.04016436,0.18569231,-0.29251957,-0.77532077,-6.39375,-26.550001,-27.862501
1763129283534,0.28414768,6.544968,7.4446692,0.0971275,0.06582068,-0.01282816,0.18569231,-0.29251957,-0.77532077,-6.39375,-26.550001,-27.862501
1763129283535,0.11306087,6.382256,7.34118,0.0971275,0.06582068,-0.01282816,0.18569231,-0.29251957,-0.77532077,-6.39375,-26.550001,-27.862501
1763129283539,0.11306087,6.382256,7.34118,0.0971275,0.06582068,-0.01282816,0.1868313,-0.2929375,-0.77490276,-6.39375,-26.550001,-27.862501
1763129283540,0.11306087,6.382256,7.34118,0.0971275,0.06582068,-0.01282816,0.1868313,-0.2929375,-0.77490276,-7.3500004,-27.750002,-28.275002
1763129283555,0.11306087,6.382256,7.34118,0.08414663,0.033139415,0.013744458,0.1868313,-0.2929375,-0.77490276,-7.3500004,-27.750002,-28.275002
1763129283556,0.14237295,6.454639,7.2616186,0.08414663,0.033139415,0.013744458,0.1868313,-0.2929375,-0.77490276,-7.3500004,-27.750002,-28.275002
1763129283557,0.14237295,6.454639,7.2616186,0.08414663,0.033139415,0.013744458,0.18757044,-0.2934484,-0.77445877,-7.3500004,-27.750002,-28.275002
1763129283558,0.14237295,6.454639,7.2616186,0.08414663,0.033139415,0.013744458,0.18757044,-0.2934484,-0.77445877,-7.51875,-27.6,-26.7
1763129283576,0.14237295,6.454639,7.2616186,0.11499529,-0.053603385,0.011148282,0.18757044,-0.2934484,-0.77445877,-7.51875,-27.6,-26.7
1763129283577,0.19142582,6.4528446,7.171888,0.11499529,-0.053603385,0.011148282,0.18757044,-0.2934484,-0.77445877,-7.51875,-27.6,-26.7
1763129283578,0.19142582,6.4528446,7.171888,0.11499529,-0.053603385,0.011148282,0.18757044,-0.2934484,-0.77445877,-7.9125004,-26.8875,-25.95
1763129283579,0.19142582,6.4528446,7.171888,0.11499529,-0.053603385,0.011148282,0.18781568,-0.29468772,-0.7740522,-7.9125004,-26.8875,-25.95
1763129283599,0.19142582,6.4528446,7.171888,0.12675445,-0.10354158,0.006261364,0.18781568,-0.29468772,-0.7740522,-7.9125004,-26.8875,-25.95
1763129283600,0.19142582,6.4528446,7.171888,0.12675445,-0.10354158,0.006261364,0.18773936,-0.29629508,-0.7737184,-7.9125004,-26.8875,-25.95
1763129283601,0.19142582,6.4528446,7.171888,0.12675445,-0.10354158,0.006261364,0.18773936,-0.29629508,-0.7737184,-8.94375,-28.10625,-28.35
1763129283603,0.13998012,6.4666033,7.076773,0.12675445,-0.10354158,0.006261364,0.18773936,-0.29629508,-0.7737184,-8.94375,-28.10625,-28.35
1763129283619,0.13998012,6.4666033,7.076773,0.06902772,-0.083383046,0.010079269,0.18773936,-0.29629508,-0.7737184,-8.94375,-28.10625,-28.35
1763129283620,0.13998012,6.4666033,7.076773,0.06902772,-0.083383046,0.010079269,0.18754299,-0.29731536,-0.77345026,-8.94375,-28.10625,-28.35
1763129283621,0.13998012,6.4666033,7.076773,0.06902772,-0.083383046,0.010079269,0.18754299,-0.29731536,-0.77345026,-6.20625,-27.000002,-27.825
1763129283622,0.17108682,6.503692,7.079764,0.06902772,-0.083383046,0.010079269,0.18754299,-0.29731536,-0.77345026,-6.20625,-27.000002,-27.825
1763129283637,0.17108682,6.503692,7.079764,0.06902772,-0.083383046,0.010079269,0.18754299,-0.29731536,-0.77345026,-5.7937503,-26.400002,-27.2625
1763129283638,0.17108682,6.503692,7.079764,-0.0027488915,-0.03451386,0.010537418,0.18754299,-0.29731536,-0.77345026,-5.7937503,-26.400002,-27.2625
1763129283639,0.17108682,6.503692,7.079764,-0.0027488915,-0.03451386,0.010537418,0.18734825,-0.29748783,-0.77329415,-5.7937503,-26.400002,-27.2625
1763129283641,0.2428715,6.497112,7.0761747,-0.0027488915,-0.03451386,0.010537418,0.18734825,-0.29748783,-0.77329415,-5.7937503,-26.400002,-27.2625
1763129283657,0.2428715,6.497112,7.0761747,-0.0027488915,-0.03451386,0.010537418,0.18734825,-0.29748783,-0.77329415,-6.7500005,-26.1375,-26.550001
1763129283661,0.2428715,6.497112,7.0761747,-0.024740024,-0.054825112,0.002290743,0.18734825,-0.29748783,-0.77329415,-6.7500005,-26.1375,-26.550001
1763129283662,0.2428715,6.497112,7.0761747,-0.024740024,-0.054825112,0.002290743,0.18700233,-0.29751012,-0.7730729,-6.7500005,-26.1375,-26.550001
1763129283664,0.14057833,6.4683976,7.0558357,-0.024740024,-0.054825112,0.002290743,0.18700233,-0.29751012,-0.7730729,-6.7500005,-26.1375,-26.550001
1763129283679,0.14057833,6.4683976,7.0558357,-0.024740024,-0.054825112,0.002290743,0.18700233,-0.29751012,-0.7730729,-6.05625,-27.768751,-29.400002
1763129283680,0.14057833,6.4683976,7.0558357,-0.003817905,-0.09834923,0.015729768,0.18700233,-0.29751012,-0.7730729,-6.05625,-27.768751,-29.400002
1763129283681,0.14656039,6.4163537,7.124031,-0.003817905,-0.09834923,0.015729768,0.18700233,-0.29751012,-0.7730729,-6.05625,-27.768751,-29.400002
1763129283682,0.14656039,6.4163537,7.124031,-0.003817905,-0.09834923,0.015729768,0.18629222,-0.29802126,-0.7729953,-6.05625,-27.768751,-29.400002
1763129283698,0.14656039,6.4163537,7.124031,-0.003817905,-0.09834923,0.015729768,0.18629222,-0.29802126,-0.7729953,-7.0312505,-26.7,-27.54375
1763129283702,0.14656039,6.4163537,7.124031,-0.012064579,-0.09834923,0.021380268,0.18629222,-0.29802126,-0.7729953,-7.0312505,-26.7,-27.54375
1763129283704,0.21535404,6.471389,7.2753773,-0.012064579,-0.09834923,0.021380268,0.18629222,-0.29802126,-0.7729953,-7.0312505,-26.7,-27.54375
1763129283718,0.21535404,6.471389,7.2753773,-0.012064579,-0.09834923,0.021380268,0.18629222,-0.29802126,-0.7729953,-6.5062504,-27.393751,-29.025002
1763129283723,0.21535404,6.471389,7.2753773,-0.012064579,-0.09834923,0.021380268,0.1860383,-0.2983612,-0.7724153,-6.5062504,-27.393751,-29.025002
1763129283724,0.21535404,6.471389,7.2753773,-0.012064579,-0.09834923,0.021380268,0.18616913,-0.2978666,-0.7719686,-6.5062504,-27.393751,-29.025002
1763129283726,0.25184458,6.4701924,7.4195447,-0.012064579,-0.09834923,0.021380268,0.18616913,-0.2978666,-0.7719686,-6.5062504,-27.393751,-29.025002
1763129283728,0.25184458,6.4701924,7.4195447,-0.051159926,-0.002290743,0.010079269,0.18616913,-0.2978666,-0.7719686,-6.5062504,-27.393751,-29.025002
1763129283737,0.25184458,6.4701924,7.4195447,-0.051159926,-0.002290743,0.010079269,0.18616913,-0.2978666,-0.7719686,-6.8812504,-27.618752,-27.112501
1763129283745,0.25184458,6.4701924,7.4195447,-0.051159926,-0.002290743,0.010079269,0.1859705,-0.297128,-0.77213216,-6.8812504,-27.618752,-27.112501
1763129283749,0.25184458,6.4701924,7.4195447,-0.07513637,0.034361143,0.016646065,0.1859705,-0.297128,-0.77213216,-6.8812504,-27.618752,-27.112501
1763129283750,0.19740787,6.468996,7.3621173,-0.07513637,0.034361143,0.016646065,0.1859705,-0.297128,-0.77213216,-6.8812504,-27.618752,-27.112501
1763129283759,0.19740787,6.468996,7.3621173,-0.07513637,0.034361143,0.016646065,0.1859705,-0.297128,-0.77213216,-8.625,-29.325,-27.7875
1763129283764,0.19740787,6.468996,7.3621173,-0.026725333,-0.0018325944,0.020311253,0.1859705,-0.297128,-0.77213216,-8.625,-29.325,-27.7875
1763129283765,0.19740787,6.468996,7.3621173,-0.026725333,-0.0018325944,0.020311253,0.18629308,-0.29671678,-0.7713978,-8.625,-29.325,-27.7875
1763129283766,0.2835495,6.554539,7.496115,-0.026725333,-0.0018325944,0.020311253,0.18629308,-0.29671678,-0.7713978,-8.625,-29.325,-27.7875
1763129283779,0.2835495,6.554539,7.496115,-0.026725333,-0.0018325944,0.020311253,0.18629308,-0.29671678,-0.7713978,-6.7500005,-25.987501,-27.806252
1763129283786,0.32422748,6.4875402,7.4099736,-0.026725333,-0.0018325944,0.020311253,0.18629308,-0.29671678,-0.7713978,-6.7500005,-25.987501,-27.806252
1763129283787,0.32422748,6.4875402,7.4099736,0.009468404,0.0070249448,-0.0151189035,0.18629308,-0.29671678,-0.7713978,-6.7500005,-25.987501,-27.806252
1763129283797,0.32422748,6.4875402,7.4099736,0.009468404,0.0070249448,-0.0151189035,0.18672794,-0.29660296,-0.7709455,-6.7500005,-25.987501,-27.806252
1763129283798,0.32422748,6.4875402,7.4099736,0.009468404,0.0070249448,-0.0151189035,0.18672794,-0.29660296,-0.7709455,-6.7500005,-25.987501,-28.25625
1763129283807,0.32422748,6.4875402,7.4099736,-0.0042760535,0.050396346,-0.023823727,0.18672794,-0.29660296,-0.7709455,-6.7500005,-25.987501,-28.25625
1763129283810,0.23748764,6.433702,7.2323065,-0.0042760535,0.050396346,-0.023823727,0.18672794,-0.29660296,-0.7709455,-6.7500005,-25.987501,-28.25625
1763129283818,0.23748764,6.433702,7.2323065,-0.0042760535,0.050396346,-0.023823727,0.1871043,-0.2963602,-0.77100444,-6.7500005,-25.987501,-28.25625
1763129283819,0.23748764,6.433702,7.2323065,-0.0042760535,0.050396346,-0.023823727,0.1871043,-0.2963602,-0.77100444,-6.0,-26.625002,-27.88125
1763129283828,0.17048861,6.419345,7.1623163,-0.0042760535,0.050396346,-0.023823727,0.1871043,-0.2963602,-0.77100444,-6.0,-26.625002,-27.88125
1763129283829,0.17048861,6.419345,7.1623163,-0.03649917,0.057726722,0.0013744457,0.1871043,-0.2963602,-0.77100444,-6.0,-26.625002,-27.88125
1763129283838,0.17048861,6.419345,7.1623163,-0.03649917,0.057726722,0.0013744457,0.18779579,-0.2956911,-0.7703843,-6.0,-26.625002,-27.88125
1763129283839,0.17048861,6.419345,7.1623163,-0.03649917,0.057726722,0.0013744457,0.18779579,-0.2956911,-0.7703843,-7.14375,-27.525002,-27.35625
1763129283848,0.17048861,6.419345,7.1623163,-0.025503604,0.03405571,0.027947064,0.18779579,-0.2956911,-0.7703843,-7.14375,-27.525002,-27.35625
1763129283849,0.25842485,6.492924,7.347162,-0.025503604,0.03405571,0.027947064,0.18779579,-0.2956911,-0.7703843,-7.14375,-27.525002,-27.35625
1763129283860,0.25842485,6.492924,7.347162,-0.025503604,0.03405571,0.027947064,0.1885018,-0.29521495,-0.769429,-7.14375,-27.525002,-27.35625
1763129283861,0.25842485,6.492924,7.347162,-0.025503604,0.03405571,0.027947064,0.1885018,-0.29521495,-0.769429,-6.7125,-26.156252,-28.35
1763129283870,0.25842485,6.492924,7.347162,0.028252495,0.1432478,0.010537418,0.1885018,-0.29521495,-0.769429,-6.7125,-26.156252,-28.35
1763129283871,0.17347965,6.4618177,6.726823,0.028252495,0.1432478,0.010537418,0.1885018,-0.29521495,-0.769429,-6.7125,-26.156252,-28.35
1763129283878,0.17347965,6.4618177,6.726823,0.028252495,0.1432478,0.010537418,0.18983129,-0.29477885,-0.7689164,-6.7125,-26.156252,-28.35
1763129283879,0.17347965,6.4618177,6.726823,0.028252495,0.1432478,0.010537418,0.18983129,-0.29477885,-0.7689164,-6.6375003,-26.625002,-28.968752
1763129283891,0.17347965,6.4618177,6.726823,-0.016035201,-0.12125666,-0.049480047,0.18983129,-0.29477885,-0.7689164,-6.6375003,-26.625002,-28.968752
1763129283892,-0.1591227,6.474978,6.3996043,-0.016035201,-0.12125666,-0.049480047,0.18983129,-0.29477885,-0.7689164,-6.6375003,-26.625002,-28.968752
1763129283897,-0.1591227,6.474978,6.3996043,-0.016035201,-0.12125666,-0.049480047,0.1904399,-0.29512396,-0.76740354,-6.6375003,-26.625002,-28.968752
1763129283898,-0.1591227,6.474978,6.3996043,-0.016035201,-0.12125666,-0.049480047,0.1904399,-0.29512396,-0.76740354,-8.56875,-28.181252,-27.31875
1763129283912,-0.1591227,6.474978,6.3996043,-0.16630794,-0.13942988,0.032070402,0.1904399,-0.29512396,-0.76740354,-8.56875,-28.181252,-27.31875
1763129283913,0.03708875,6.0987067,6.9056864,-0.16630794,-0.13942988,0.032070402,0.1904399,-0.29512396,-0.76740354,-8.56875,-28.181252,-27.31875
1763129283919,0.03708875,6.0987067,6.9056864,-0.16630794,-0.13942988,0.032070402,0.19154331,-0.29384336,-0.7639923,-8.56875,-28.181252,-27.31875
1763129283920,0.03708875,6.0987067,6.9056864,-0.16630794,-0.13942988,0.032070402,0.19154331,-0.29384336,-0.7639923,-8.15625,-28.25625,-28.837502
1763129283934,0.16630118,6.233901,8.119446,-0.16630794,-0.13942988,0.032070402,0.19154331,-0.29384336,-0.7639923,-8.15625,-28.25625,-28.837502
1763129283935,0.16630118,6.233901,8.119446,-0.24541493,-0.1753182,0.101708986,0.19154331,-0.29384336,-0.7639923,-8.15625,-28.25625,-28.837502
1763129283939,0.16630118,6.233901,8.119446,-0.24541493,-0.1753182,0.101708986,0.18933463,-0.2926886,-0.76364046,-8.15625,-28.25625,-28.837502
1763129283940,0.16630118,6.233901,8.119446,-0.24541493,-0.1753182,0.101708986,0.18933463,-0.2926886,-0.76364046,-8.625,-27.862501,-27.4125
1763129283954,0.16630118,6.233901,8.119446,-0.08002329,0.022907428,0.119271345,0.18933463,-0.2926886,-0.76364046,-8.625,-27.862501,-27.4125
1763129283955,-0.025124637,5.889933,8.717651,-0.08002329,0.022907428,0.119271345,0.18933463,-0.2926886,-0.76364046,-8.625,-27.862501,-27.4125
1763129283958,-0.025124637,5.889933,8.717651,-0.08002329,0.022907428,0.119271345,0.18719736,-0.29203278,-0.7656521,-8.625,-27.862501,-27.4125
1763129283959,-0.025124637,5.889933,8.717651,-0.08002329,0.022907428,0.119271345,0.18719736,-0.29203278,-0.7656521,-8.56875,-28.181252,-27.31875
