timestamp,accX,accY,accZ,gyroX,gyroY,gyroZ,rotX,rotY,rotZ,magX,magY,magZ
1763129419638,-1.1742777,8.0817585,4.2352962,0.33704466,-0.68126696,0.20570871,0.43461597,-0.0023123457,-0.11804421,-3.15,-6.01875,-32.850002
1763129419645,-1.1742777,8.0817585,4.2352962,-0.58215415,-0.35384342,0.12232567,0.43461597,-0.0023123457,-0.11804421,-3.15,-6.01875,-32.850002
1763129419646,-0.05922236,7.629515,5.4957156,-0.58215415,-0.35384342,0.12232567,0.43461597,-0.0023123457,-0.11804421,-3.15,-6.01875,-32.850002
1763129419659,-0.05922236,7.629515,5.4957156,-0.58215415,-0.35384342,0.12232567,0.42914754,-0.0053752903,-0.11843374,-3.15,-6.01875,-32.850002
1763129419659,-0.05922236,7.629515,5.4957156,-0.58215415,-0.35384342,0.12232567,0.42914754,-0.0053752903,-0.11843374,-6.3562503,-7.55625,-32.325
1763129419667,-0.05922236,7.629515,5.4957156,-0.98853195,-0.015577052,0.056199558,0.42914754,-0.0053752903,-0.11843374,-6.3562503,-7.55625,-32.325
1763129419668,-0.4031906,7.4446692,6.6077795,-0.98853195,-0.015577052,0.056199558,0.42914754,-0.0053752903,-0.11843374,-6.3562503,-7.55625,-32.325
1763129419677,-0.4031906,7.4446692,6.6077795,-0.98853195,-0.015577052,0.056199558,0.4199794,-0.0046255267,-0.117672086,-6.3562503,-7.55625,-32.325
1763129419678,-0.4031906,7.4446692,6.6077795,-0.98853195,-0.015577052,0.056199558,0.4199794,-0.0046255267,-0.117672086,-5.71875,-5.9812503,-32.550003
1763129419687,-0.654437,7.3926253,7.09113,-0.98853195,-0.015577052,0.056199558,0.4199794,-0.0046255267,-0.117672086,-5.71875,-5.9812503,-32.550003
1763129419689,-0.654437,7.3926253,7.09113,-0.66523176,-0.015577052,0.044134982,0.4199794,-0.0046255267,-0.117672086,-5.71875,-5.9812503,-32.550003
1763129419697,-0.654437,7.3926253,7.09113,-0.66523176,-0.015577052,0.044134982,0.41364434,-0.004200952,-0.11717396,-5.71875,-5.9812503,-32.550003
1763129419698,-0.654437,7.3926253,7.09113,-0.66523176,-0.015577052,0.044134982,0.41364434,-0.004200952,-0.11717396,-4.70625,-6.6937504,-32.2125
1763129419710,-0.654437,7.3926253,7.09113,-0.09346231,-0.10583232,0.029779658,0.41364434,-0.004200952,-0.11717396,-4.70625,-6.6937504,-32.2125
1763129419712,-0.7704889,7.2442703,7.328019,-0.09346231,-0.10583232,0.029779658,0.41364434,-0.004200952,-0.11717396,-4.70625,-6.6937504,-32.2125
1763129419718,-0.7704889,7.2442703,7.328019,-0.09346231,-0.10583232,0.029779658,0.41252336,-0.0052476195,-0.117297895,-4.70625,-6.6937504,-32.2125
1763129419719,-0.7704889,7.2442703,7.328019,-0.09346231,-0.10583232,0.029779658,0.41252336,-0.0052476195,-0.117297895,-2.15625,-4.05,-35.49375
1763129419729,-0.7704889,7.2442703,7.328019,0.23884813,0.0051923506,0.031917684,0.41252336,-0.0052476195,-0.117297895,-2.15625,-4.05,-35.49375
1763129419730,-0.5491528,7.389036,6.5886374,0.23884813,0.0051923506,0.031917684,0.41252336,-0.0052476195,-0.117297895,-2.15625,-4.05,-35.49375
1763129419738,-0.5491528,7.389036,6.5886374,0.23884813,0.0051923506,0.031917684,0.414614,-0.0056497725,-0.11697245,-2.15625,-4.05,-35.49375
1763129419739,-0.5491528,7.389036,6.5886374,0.23884813,0.0051923506,0.031917684,0.414614,-0.0056497725,-0.11697245,-3.0937502,-4.5750003,-35.025
1763129419750,-0.5491528,7.389036,6.5886374,0.21349724,0.050090913,0.0024434591,0.414614,-0.0056497725,-0.11697245,-3.0937502,-4.5750003,-35.025
1763129419752,-0.5563313,7.414759,5.723632,0.21349724,0.050090913,0.0024434591,0.414614,-0.0056497725,-0.11697245,-3.0937502,-4.5750003,-35.025
1763129419757,-0.5563313,7.414759,5.723632,0.21349724,0.050090913,0.0024434591,0.41665795,-0.005483423,-0.116610765,-3.0937502,-4.5750003,-35.025
1763129419758,-0.5563313,7.414759,5.723632,0.21349724,0.050090913,0.0024434591,0.41665795,-0.005483423,-0.116610765,-0.22500001,-3.43125,-34.93125
1763129419771,-0.5563313,7.414759,5.723632,0.016187917,0.007177661,-0.025045456,0.41665795,-0.005483423,-0.116610765,-0.22500001,-3.43125,-34.93125
1763129419772,-0.72382885,7.5517483,5.2929235,0.016187917,0.007177661,-0.025045456,0.41665795,-0.005483423,-0.116610765,-0.22500001,-3.43125,-34.93125
1763129419778,-0.72382885,7.5517483,5.2929235,0.016187917,0.007177661,-0.025045456,0.4169413,-0.0053525907,-0.116672315,-0.22500001,-3.43125,-34.93125
1763129419779,-0.72382885,7.5517483,5.2929235,0.016187917,0.007177661,-0.025045456,0.4169413,-0.0053525907,-0.116672315,-1.0125,-4.1062503,-35.287502
1763129419792,-0.72382885,7.5517483,5.2929235,-0.20341797,-0.09483676,-0.064140804,0.4169413,-0.0053525907,-0.116672315,-1.0125,-4.1062503,-35.287502
1763129419794,-0.9667004,7.4141607,5.7637115,-0.20341797,-0.09483676,-0.064140804,0.4169413,-0.0053525907,-0.116672315,-1.0125,-4.1062503,-35.287502
1763129419798,-0.9667004,7.4141607,5.7637115,-0.20341797,-0.09483676,-0.064140804,0.4151325,-0.005722331,-0.11759396,-1.0125,-4.1062503,-35.287502
1763129419799,-0.9667004,7.4141607,5.7637115,-0.20341797,-0.09483676,-0.064140804,0.4151325,-0.005722331,-0.11759396,-1.03125,-3.7875001,-36.300003
1763129419814,-0.9667004,7.4141607,5.7637115,-0.32238388,-0.08353576,-0.06169734,0.4151325,-0.005722331,-0.11759396,-1.03125,-3.7875001,-36.300003
1763129419815,-1.1521441,7.068398,6.5772715,-0.32238388,-0.08353576,-0.06169734,0.4151325,-0.005722331,-0.11759396,-1.03125,-3.7875001,-36.300003
1763129419819,-1.1521441,7.068398,6.5772715,-0.32238388,-0.08353576,-0.06169734,0.4121216,-0.0058265077,-0.1185653,-1.03125,-3.7875001,-36.300003
1763129419820,-1.1521441,7.068398,6.5772715,-0.32238388,-0.08353576,-0.06169734,0.4121216,-0.0058265077,-0.1185653,-2.1000001,-5.15625,-35.34375
1763129419834,-1.2107682,6.9248285,6.9966135,-0.32238388,-0.08353576,-0.06169734,0.4121216,-0.0058265077,-0.1185653,-2.1000001,-5.15625,-35.34375
1763129419835,-1.2107682,6.9248285,6.9966135,-0.27107126,-0.06475167,6.108648E-4,0.4121216,-0.0058265077,-0.1185653,-2.1000001,-5.15625,-35.34375
1763129419837,-1.2107682,6.9248285,6.9966135,-0.27107126,-0.06475167,6.108648E-4,0.40943164,-0.006070832,-0.11898699,-2.1000001,-5.15625,-35.34375
1763129419838,-1.2107682,6.9248285,6.9966135,-0.27107126,-0.06475167,6.108648E-4,0.40943164,-0.006070832,-0.11898699,-3.7500002,-6.01875,-35.737503
1763129419855,-1.2107682,6.9248285,6.9966135,-0.11026109,-0.040775225,0.05497783,0.40943164,-0.006070832,-0.11898699,-3.7500002,-6.01875,-35.737503
1763129419856,-1.0588241,7.1545396,7.3064837,-0.11026109,-0.040775225,0.05497783,0.40943164,-0.006070832,-0.11898699,-3.7500002,-6.01875,-35.737503
1763129419858,-1.0588241,7.1545396,7.3064837,-0.11026109,-0.040775225,0.05497783,0.40820298,-0.006517054,-0.118832015,-3.7500002,-6.01875,-35.737503
1763129419858,-1.0588241,7.1545396,7.3064837,-0.11026109,-0.040775225,0.05497783,0.40820298,-0.006517054,-0.118832015,-2.9625,-5.3625,-35.831253
1763129419878,-1.0588241,7.1545396,7.3064837,0.01282816,0.060322896,0.040317077,0.40820298,-0.006517054,-0.118832015,-2.9625,-5.3625,-35.831253
1763129419879,-1.0588241,7.1545396,7.3064837,0.01282816,0.060322896,0.040317077,0.40824878,-0.0061147413,-0.11831089,-2.9625,-5.3625,-35.831253
1763129419879,-0.9487542,7.216753,6.8817577,0.01282816,0.060322896,0.040317077,0.40824878,-0.0061147413,-0.11831089,-2.9625,-5.3625,-35.831253
1763129419880,-0.9487542,7.216753,6.8817577,0.01282816,0.060322896,0.040317077,0.40824878,-0.0061147413,-0.11831089,-2.30625,-3.1312501,-35.943752
1763129419899,-0.9487542,7.216753,6.8817577,0.04780017,0.045203995,0.046425723,0.40824878,-0.0061147413,-0.11831089,-2.30625,-3.1312501,-35.943752
1763129419900,-0.9487542,7.216753,6.8817577,0.04780017,0.045203995,0.046425723,0.4086877,-0.005934149,-0.11773238,-2.30625,-3.1312501,-35.943752
1763129419900,-1.0606186,7.2466636,6.454639,0.04780017,0.045203995,0.046425723,0.4086877,-0.005934149,-0.11773238,-2.30625,-3.1312501,-35.943752
1763129419901,-1.0606186,7.2466636,6.454639,0.04780017,0.045203995,0.046425723,0.4086877,-0.005934149,-0.11773238,-5.9812503,-4.275,-33.693752
1763129419919,-1.0606186,7.2466636,6.454639,0.04780017,0.045203995,0.046425723,0.4089306,-0.006099077,-0.11699365,-5.9812503,-4.275,-33.693752
1763129419920,-1.0606186,7.2466636,6.454639,0.022296565,0.018173227,0.07834341,0.4089306,-0.006099077,-0.11699365,-5.9812503,-4.275,-33.693752
1763129419922,-1.0606186,7.2466636,6.454639,0.022296565,0.018173227,0.07834341,0.4089306,-0.006099077,-0.11699365,-2.41875,-4.7625003,-36.300003
1763129419923,-0.82672024,7.245467,6.390631,0.022296565,0.018173227,0.07834341,0.4089306,-0.006099077,-0.11699365,-2.41875,-4.7625003,-36.300003
1763129419938,-0.82672024,7.245467,6.390631,0.022296565,0.018173227,0.07834341,0.4089306,-0.006099077,-0.11699365,-2.625,-4.96875,-37.2
1763129419940,-0.82672024,7.245467,6.390631,-0.0059559317,0.030390523,0.074525505,0.4089306,-0.006099077,-0.11699365,-2.625,-4.96875,-37.2
1763129419941,-0.82672024,7.245467,6.390631,-0.0059559317,0.030390523,0.074525505,0.40892577,-0.0061213914,-0.11615469,-2.625,-4.96875,-37.2
1763129419942,-0.7369894,7.2849483,6.425327,-0.0059559317,0.030390523,0.074525505,0.40892577,-0.0061213914,-0.11615469,-2.625,-4.96875,-37.2
1763129419957,-0.7369894,7.2849483,6.425327,-0.0059559317,0.030390523,0.074525505,0.40892577,-0.0061213914,-0.11615469,-3.7687502,-6.01875,-34.987503
1763129419960,-0.7369894,7.2849483,6.425327,-0.0051923506,0.032986697,0.06352994,0.40892577,-0.0061213914,-0.11615469,-3.7687502,-6.01875,-34.987503
1763129419962,-0.7369894,7.2849483,6.425327,-0.0051923506,0.032986697,0.06352994,0.40893,-0.0060819187,-0.11537545,-3.7687502,-6.01875,-34.987503
1763129419963,-0.6687939,7.3381886,6.294918,-0.0051923506,0.032986697,0.06352994,0.40893,-0.0060819187,-0.11537545,-3.7687502,-6.01875,-34.987503
1763129419978,-0.6687939,7.3381886,6.294918,-0.0051923506,0.032986697,0.06352994,0.40893,-0.0060819187,-0.11537545,-1.9125,-3.99375,-35.4375
1763129419982,-0.6687939,7.3381886,6.294918,-0.0051923506,0.010995566,0.0481056,0.40893,-0.0060819187,-0.11537545,-1.9125,-3.99375,-35.4375
1763129419983,-0.6687939,7.3381886,6.294918,-0.0051923506,0.010995566,0.0481056,0.40893844,-0.0061911303,-0.11480484,-1.9125,-3.99375,-35.4375
1763129419984,-0.70229346,7.3011003,6.1770716,-0.0051923506,0.010995566,0.0481056,0.40893844,-0.0061911303,-0.11480484,-1.9125,-3.99375,-35.4375
1763129419998,-0.70229346,7.3011003,6.1770716,-0.0051923506,0.010995566,0.0481056,0.40893844,-0.0061911303,-0.11480484,-2.4562502,-4.59375,-34.987503
1763129420002,-0.70229346,7.3011003,6.1770716,-0.0051923506,0.010995566,0.0481056,0.40869638,-0.006374772,-0.11452239,-2.4562502,-4.59375,-34.987503
1763129420003,-0.70229346,7.3011003,6.1770716,-0.03084867,-0.009468404,0.028557928,0.40869638,-0.006374772,-0.11452239,-2.4562502,-4.59375,-34.987503
1763129420005,-0.6113662,7.3776703,6.270392,-0.03084867,-0.009468404,0.028557928,0.40869638,-0.006374772,-0.11452239,-2.4562502,-4.59375,-34.987503
1763129420019,-0.6113662,7.3776703,6.270392,-0.03084867,-0.009468404,0.028557928,0.40869638,-0.006374772,-0.11452239,-1.5375,-3.2625,-34.7625
1763129420024,-0.6113662,7.3776703,6.270392,-0.03084867,-0.009468404,0.028557928,0.40828648,-0.006404677,-0.11443665,-1.5375,-3.2625,-34.7625
1763129420025,-0.67477596,7.342376,6.5001025,-0.03084867,-0.009468404,0.028557928,0.40828648,-0.006404677,-0.11443665,-1.5375,-3.2625,-34.7625
1763129420026,-0.67477596,7.342376,6.5001025,-0.048716467,-0.0061086477,0.0025961753,0.40828648,-0.006404677,-0.11443665,-1.5375,-3.2625,-34.7625
1763129420037,-0.67477596,7.342376,6.5001025,-0.048716467,-0.0061086477,0.0025961753,0.40828648,-0.006404677,-0.11443665,-0.675,-3.7125,-36.206253
1763129420044,-0.67477596,7.342376,6.5001025,-0.048716467,0.023518294,-0.020769402,0.40828648,-0.006404677,-0.11443665,-0.675,-3.7125,-36.206253
1763129420045,-0.67477596,7.342376,6.5001025,-0.048716467,0.023518294,-0.020769402,0.40787077,-0.006048758,-0.114479445,-0.675,-3.7125,-36.206253
1763129420046,-0.7956135,7.304091,6.476773,-0.048716467,0.023518294,-0.020769402,0.40787077,-0.006048758,-0.114479445,-0.675,-3.7125,-36.206253
1763129420058,-0.7956135,7.304091,6.476773,-0.048716467,0.023518294,-0.020769402,0.40787077,-0.006048758,-0.114479445,-1.3125,-3.8437502,-34.8375
1763129420066,-0.7956135,7.304091,6.476773,-0.04092794,-0.0025961753,-0.01527162,0.40787077,-0.006048758,-0.114479445,-1.3125,-3.8437502,-34.8375
1763129420067,-1.0402796,7.159325,6.5659056,-0.04092794,-0.0025961753,-0.01527162,0.40787077,-0.006048758,-0.114479445,-1.3125,-3.8437502,-34.8375
1763129420078,-1.0402796,7.159325,6.5659056,-0.04092794,-0.0025961753,-0.01527162,0.40749973,-0.0059609404,-0.11462577,-1.3125,-3.8437502,-34.8375
1763129420079,-1.0402796,7.159325,6.5659056,-0.04092794,-0.0025961753,-0.01527162,0.40749973,-0.0059609404,-0.11462577,-1.2375001,-2.5500002,-36.075
1763129420086,-1.0402796,7.159325,6.5659056,-0.006261364,0.0019853106,0.016798781,0.40749973,-0.0059609404,-0.11462577,-1.2375001,-2.5500002,-36.075
1763129420087,-0.8327023,7.218548,6.6071815,-0.006261364,0.0019853106,0.016798781,0.40749973,-0.0059609404,-0.11462577,-1.2375001,-2.5500002,-36.075
1763129420098,-0.8327023,7.218548,6.6071815,-0.006261364,0.0019853106,0.016798781,0.4074288,-0.005979955,-0.114551686,-1.2375001,-2.5500002,-36.075
1763129420099,-0.8327023,7.218548,6.6071815,-0.006261364,0.0019853106,0.016798781,0.4074288,-0.005979955,-0.114551686,-2.4,-4.9125004,-35.643753
1763129420108,-0.8327023,7.218548,6.6071815,0.013286309,0.00763581,-6.108648E-4,0.4074288,-0.005979955,-0.114551686,-2.4,-4.9125004,-35.643753
1763129420109,-0.8135597,7.2358956,6.544968,0.013286309,0.00763581,-6.108648E-4,0.4074288,-0.005979955,-0.114551686,-2.4,-4.9125004,-35.643753
1763129420118,-0.8135597,7.2358956,6.544968,0.013286309,0.00763581,-6.108648E-4,0.40754908,-0.0059193275,-0.1145368,-2.4,-4.9125004,-35.643753
1763129420119,-0.8135597,7.2358956,6.544968,0.013286309,0.00763581,-6.108648E-4,0.40754908,-0.0059193275,-0.1145368,-2.5875,-3.6750002,-36.6375
1763129420128,-0.8135597,7.2358956,6.544968,-0.003970621,0.03451386,-0.029168794,0.40754908,-0.0059193275,-0.1145368,-2.5875,-3.6750002,-36.6375
1763129420129,-0.8530413,7.171888,6.259624,-0.003970621,0.03451386,-0.029168794,0.40754908,-0.0059193275,-0.1145368,-2.5875,-3.6750002,-36.6375
1763129420138,-0.8530413,7.171888,6.259624,-0.003970621,0.03451386,-0.029168794,0.4075517,-0.0054626134,-0.11466551,-2.5875,-3.6750002,-36.6375
1763129420139,-0.8530413,7.171888,6.259624,-0.003970621,0.03451386,-0.029168794,0.4075517,-0.0054626134,-0.11466551,-3.9750001,-6.24375,-35.30625
1763129420152,-0.8530413,7.171888,6.259624,-0.06994402,0.00641408,-0.029168794,0.4075517,-0.0054626134,-0.11466551,-3.9750001,-6.24375,-35.30625
1763129420153,-0.9553344,7.146763,6.134001,-0.06994402,0.00641408,-0.029168794,0.4075517,-0.0054626134,-0.11466551,-3.9750001,-6.24375,-35.30625
1763129420160,-0.9553344,7.146763,6.134001,-0.06994402,0.00641408,-0.029168794,0.40693712,-0.005186532,-0.11492354,-3.9750001,-6.24375,-35.30625
1763129420161,-0.9553344,7.146763,6.134001,-0.06994402,0.00641408,-0.029168794,0.40693712,-0.005186532,-0.11492354,-1.9875001,-3.525,-35.737503
1763129420170,-0.9553344,7.146763,6.134001,-0.13133593,-0.043982264,-0.03084867,0.40693712,-0.005186532,-0.11492354,-1.9875001,-3.525,-35.737503
1763129420171,-0.80997044,7.2358956,6.1621165,-0.13133593,-0.043982264,-0.03084867,0.40693712,-0.005186532,-0.11492354,-1.9875001,-3.525,-35.737503
1763129420178,-0.80997044,7.2358956,6.1621165,-0.13133593,-0.043982264,-0.03084867,0.40570426,-0.005294533,-0.11544923,-1.9875001,-3.525,-35.737503
1763129420179,-0.80997044,7.2358956,6.1621165,-0.13133593,-0.043982264,-0.03084867,0.40570426,-0.005294533,-0.11544923,-2.30625,-3.1125002,-35.643753
1763129420192,-0.80997044,7.2358956,6.1621165,-0.20341797,-0.065667965,-0.06307179,0.40570426,-0.005294533,-0.11544923,-2.30625,-3.1125002,-35.643753
1763129420193,-0.86261255,7.1527452,6.326623,-0.20341797,-0.065667965,-0.06307179,0.40570426,-0.005294533,-0.11544923,-2.30625,-3.1125002,-35.643753
1763129420197,-0.86261255,7.1527452,6.326623,-0.20341797,-0.065667965,-0.06307179,0.40570426,-0.005294533,-0.11544923,-0.6,-1.25625,-33.35625
1763129420212,-0.86261255,7.1527452,6.326623,-0.22266021,-0.067958705,-0.059253883,0.40570426,-0.005294533,-0.11544923,-0.6,-1.25625,-33.35625
1763129420212,-0.80757767,7.1581287,6.59103,-0.22266021,-0.067958705,-0.059253883,0.40570426,-0.005294533,-0.11544923,-0.6,-1.25625,-33.35625
1763129420218,-0.80757767,7.1581287,6.59103,-0.22266021,-0.067958705,-0.059253883,0.40425137,-0.005386373,-0.11616861,-0.6,-1.25625,-33.35625
1763129420219,-0.80757767,7.1581287,6.59103,-0.22266021,-0.067958705,-0.059253883,0.40239197,-0.0054593123,-0.11705666,-0.6,-1.25625,-33.35625
1763129420221,-0.80757767,7.1581287,6.59103,-0.22266021,-0.067958705,-0.059253883,0.40239197,-0.0054593123,-0.11705666,-3.2250001,-3.80625,-35.71875
1763129420233,-0.73519474,7.1527452,6.702894,-0.22266021,-0.067958705,-0.059253883,0.40239197,-0.0054593123,-0.11705666,-3.2250001,-3.80625,-35.71875
1763129420234,-0.73519474,7.1527452,6.702894,-0.19288056,-0.038026333,-0.089797124,0.40239197,-0.0054593123,-0.11705666,-3.2250001,-3.80625,-35.71875
1763129420238,-0.73519474,7.1527452,6.702894,-0.19288056,-0.038026333,-0.089797124,0.4005968,-0.0052229757,-0.117995076,-3.2250001,-3.80625,-35.71875
1763129420239,-0.73519474,7.1527452,6.702894,-0.19288056,-0.038026333,-0.089797124,0.4005968,-0.0052229757,-0.117995076,-5.8875003,-4.74375,-34.74375
1763129420254,-0.94636136,7.118049,6.6741805,-0.19288056,-0.038026333,-0.089797124,0.4005968,-0.0052229757,-0.117995076,-5.8875003,-4.74375,-34.74375
1763129420256,-0.94636136,7.118049,6.6741805,-0.15989386,-0.05589413,-0.094378605,0.4005968,-0.0052229757,-0.117995076,-5.8875003,-4.74375,-34.74375
1763129420259,-0.94636136,7.118049,6.6741805,-0.15989386,-0.05589413,-0.094378605,0.4005968,-0.0052229757,-0.117995076,-6.7312503,-6.1875005,-30.975
1763129420260,-0.94636136,7.118049,6.6741805,-0.15989386,-0.05589413,-0.094378605,0.3989976,-0.0052461955,-0.118872374,-6.7312503,-6.1875005,-30.975
1763129420277,-0.94636136,7.118049,6.6741805,-0.110108376,-0.07086031,-0.056046844,0.3989976,-0.0052461955,-0.118872374,-6.7312503,-6.1875005,-30.975
1763129420278,-0.87278205,7.0935225,6.6819572,-0.110108376,-0.07086031,-0.056046844,0.3989976,-0.0052461955,-0.118872374,-6.7312503,-6.1875005,-30.975
1763129420279,-0.87278205,7.0935225,6.6819572,-0.110108376,-0.07086031,-0.056046844,0.3989976,-0.0052461955,-0.118872374,-1.5375,-3.91875,-36.412502
1763129420281,-0.87278205,7.0935225,6.6819572,-0.110108376,-0.07086031,-0.056046844,0.39791605,-0.0054608607,-0.11997089,-1.5375,-3.91875,-36.412502
1763129420296,-0.87278205,7.0935225,6.6819572,-0.06658426,-0.10399973,-0.069485866,0.39791605,-0.0054608607,-0.11997089,-1.5375,-3.91875,-36.412502
1763129420298,-0.63170516,7.2729845,6.6855464,-0.06658426,-0.10399973,-0.069485866,0.39791605,-0.0054608607,-0.11997089,-1.5375,-3.91875,-36.412502
1763129420299,-0.63170516,7.2729845,6.6855464,-0.06658426,-0.10399973,-0.069485866,0.39718565,-0.006048019,-0.12116146,-1.5375,-3.91875,-36.412502
1763129420300,-0.63170516,7.2729845,6.6855464,-0.06658426,-0.10399973,-0.069485866,0.39718565,-0.006048019,-0.12116146,-2.4562502,-4.59375,-35.4375
1763129420318,-0.63170516,7.2729845,6.6855464,-0.077579826,-0.09605849,-0.14004076,0.39718565,-0.006048019,-0.12116146,-2.4562502,-4.59375,-35.4375
1763129420319,-0.63170516,7.2729845,6.6855464,-0.077579826,-0.09605849,-0.14004076,0.3965464,-0.006452361,-0.122277446,-2.4562502,-4.59375,-35.4375
1763129420320,-0.63170516,7.2729845,6.6855464,-0.077579826,-0.09605849,-0.14004076,0.3965464,-0.006452361,-0.122277446,-3.3937502,-4.33125,-35.025
1763129420321,-0.6269195,7.2215385,6.576673,-0.077579826,-0.09605849,-0.14004076,0.3965464,-0.006452361,-0.122277446,-3.3937502,-4.33125,-35.025
1763129420339,-0.6269195,7.2215385,6.576673,-0.077579826,-0.09605849,-0.14004076,0.39546472,-0.006502998,-0.12333135,-3.3937502,-4.33125,-35.025
1763129420340,-0.6269195,7.2215385,6.576673,-0.1386663,-0.07086031,-0.14813471,0.39546472,-0.006502998,-0.12333135,-3.3937502,-4.33125,-35.025
1763129420341,-0.94636136,6.987042,6.5629144,-0.1386663,-0.07086031,-0.14813471,0.39546472,-0.006502998,-0.12333135,-3.3937502,-4.33125,-35.025
1763129420343,-0.94636136,6.987042,6.5629144,-0.1386663,-0.07086031,-0.14813471,0.39546472,-0.006502998,-0.12333135,-1.1437501,-3.16875,-35.737503
1763129420357,-0.94636136,6.987042,6.5629144,-0.1386663,-0.07086031,-0.14813471,0.39546472,-0.006502998,-0.12333135,-1.5187501,-2.60625,-34.78125
1763129420359,-0.94636136,6.987042,6.5629144,-0.15363249,-0.0820086,-0.07895427,0.39546472,-0.006502998,-0.12333135,-1.5187501,-2.60625,-34.78125
1763129420361,-0.94636136,6.987042,6.5629144,-0.15363249,-0.0820086,-0.07895427,0.39406958,-0.006659951,-0.12467586,-1.5187501,-2.60625,-34.78125
1763129420363,-1.018146,6.859026,6.672386,-0.15363249,-0.0820086,-0.07895427,0.39406958,-0.006659951,-0.12467586,-1.5187501,-2.60625,-34.78125
1763129420377,-1.018146,6.859026,6.672386,-0.15363249,-0.0820086,-0.07895427,0.39406958,-0.006659951,-0.12467586,-2.53125,-4.14375,-35.8875
1763129420380,-1.018146,6.859026,6.672386,-0.15363249,-0.0820086,-0.07895427,0.39263088,-0.007108759,-0.1261542,-2.53125,-4.14375,-35.8875
1763129420382,-1.018146,6.859026,6.672386,-0.13225223,-0.105526894,-0.055283263,0.39263088,-0.007108759,-0.1261542,-2.53125,-4.14375,-35.8875
1763129420383,-0.84347,6.9762745,6.81775,-0.13225223,-0.105526894,-0.055283263,0.39263088,-0.007108759,-0.1261542,-2.53125,-4.14375,-35.8875
1763129420398,-0.84347,6.9762745,6.81775,-0.13225223,-0.105526894,-0.055283263,0.39263088,-0.007108759,-0.1261542,-1.9875001,-1.9312501,-36.46875
1763129420401,-0.84347,6.9762745,6.81775,-0.13225223,-0.105526894,-0.055283263,0.39133224,-0.0072621866,-0.12727185,-1.9875001,-1.9312501,-36.46875
1763129420402,-0.84347,6.9762745,6.81775,-0.12064579,-0.06887501,-0.08460477,0.39133224,-0.0072621866,-0.12727185,-1.9875001,-1.9312501,-36.46875
1763129420404,-0.8021938,6.9936223,6.7890363,-0.12064579,-0.06887501,-0.08460477,0.39133224,-0.0072621866,-0.12727185,-1.9875001,-1.9312501,-36.46875
1763129420418,-0.8021938,6.9936223,6.7890363,-0.12064579,-0.06887501,-0.08460477,0.39133224,-0.0072621866,-0.12727185,-3.6562502,-4.89375,-36.768753
1763129420422,-0.8021938,6.9936223,6.7890363,-0.12064579,-0.06887501,-0.08460477,0.39003828,-0.007137143,-0.12819712,-3.6562502,-4.89375,-36.768753
1763129420424,-1.0163515,6.86441,6.6532435,-0.12064579,-0.06887501,-0.08460477,0.39003828,-0.007137143,-0.12819712,-3.6562502,-4.89375,-36.768753
1763129420425,-1.0163515,6.86441,6.6532435,-0.13347395,-0.041080657,-0.0923933,0.39003828,-0.007137143,-0.12819712,-3.6562502,-4.89375,-36.768753
1763129420437,-1.0163515,6.86441,6.6532435,-0.13347395,-0.041080657,-0.0923933,0.39003828,-0.007137143,-0.12819712,-2.8500001,-2.11875,-36.05625
1763129420443,-1.0163515,6.86441,6.6532435,-0.13347395,-0.041080657,-0.0923933,0.38874692,-0.007106406,-0.1293515,-2.8500001,-2.11875,-36.05625
1763129420444,-1.0163515,6.86441,6.6532435,-0.14034618,-0.055130545,-0.0537561,0.38874692,-0.007106406,-0.1293515,-2.8500001,-2.11875,-36.05625
1763129420444,-1.0797613,6.7728844,6.693323,-0.14034618,-0.055130545,-0.0537561,0.38874692,-0.007106406,-0.1293515,-2.8500001,-2.11875,-36.05625
1763129420457,-1.0797613,6.7728844,6.693323,-0.14034618,-0.055130545,-0.0537561,0.38874692,-0.007106406,-0.1293515,-1.5187501,-2.60625,-34.03125
1763129420464,-1.0797613,6.7728844,6.693323,-0.14034618,-0.055130545,-0.0537561,0.38747528,-0.0072009303,-0.13031769,-1.5187501,-2.60625,-34.03125
1763129420466,-1.0797613,6.7728844,6.693323,-0.12767074,-0.05497783,-0.013439025,0.38747528,-0.0072009303,-0.13031769,-1.5187501,-2.60625,-34.03125
1763129420467,-0.8997013,6.775277,6.786045,-0.12767074,-0.05497783,-0.013439025,0.38747528,-0.0072009303,-0.13031769,-1.5187501,-2.60625,-34.03125
1763129420478,-0.8997013,6.775277,6.786045,-0.12767074,-0.05497783,-0.013439025,0.38747528,-0.0072009303,-0.13031769,-1.8937501,-2.5500002,-36.112503
1763129420484,-0.8997013,6.775277,6.786045,-0.092546016,-0.050243627,-0.017715078,0.38747528,-0.0072009303,-0.13031769,-1.8937501,-2.5500002,-36.112503
1763129420485,-0.802792,6.8165536,6.7848487,-0.092546016,-0.050243627,-0.017715078,0.38747528,-0.0072009303,-0.13031769,-1.8937501,-2.5500002,-36.112503
1763129420499,-0.802792,6.8165536,6.7848487,-0.092546016,-0.050243627,-0.017715078,0.38644785,-0.007437532,-0.13087112,-1.8937501,-2.5500002,-36.112503
1763129420500,-0.802792,6.8165536,6.7848487,-0.092546016,-0.050243627,-0.017715078,0.38644785,-0.007437532,-0.13087112,-1.1625,-3.16875,-35.4375
1763129420506,-0.802792,6.8165536,6.7848487,-0.083383046,-0.051007207,-0.03375028,0.38644785,-0.007437532,-0.13087112,-1.1625,-3.16875,-35.4375
1763129420508,-0.8566305,6.8339014,6.7555366,-0.083383046,-0.051007207,-0.03375028,0.38644785,-0.007437532,-0.13087112,-1.1625,-3.16875,-35.4375
1763129420518,-0.8566305,6.8339014,6.7555366,-0.083383046,-0.051007207,-0.03375028,0.38556984,-0.0076936325,-0.13127916,-1.1625,-3.16875,-35.4375
1763129420519,-0.8566305,6.8339014,6.7555366,-0.083383046,-0.051007207,-0.03375028,0.38556984,-0.0076936325,-0.13127916,-3.54375,-5.6625004,-35.775
1763129420527,-0.8566305,6.8339014,6.7555366,-0.107817635,-0.037110034,-0.018631376,0.38556984,-0.0076936325,-0.13127916,-3.54375,-5.6625004,-35.775
1763129420528,-0.9379865,6.841678,6.8542404,-0.107817635,-0.037110034,-0.018631376,0.38556984,-0.0076936325,-0.13127916,-3.54375,-5.6625004,-35.775
1763129420537,-0.9379865,6.841678,6.8542404,-0.107817635,-0.037110034,-0.018631376,0.38457197,-0.007809045,-0.13162887,-3.54375,-5.6625004,-35.775
1763129420538,-0.9379865,6.841678,6.8542404,-0.107817635,-0.037110034,-0.018631376,0.38457197,-0.007809045,-0.13162887,-2.7,-1.5937501,-35.25
1763129420548,-0.9379865,6.841678,6.8542404,-0.11178826,-0.023976443,0.009926553,0.38457197,-0.007809045,-0.13162887,-2.7,-1.5937501,-35.25
1763129420549,-0.8967103,6.890133,7.0378895,-0.11178826,-0.023976443,0.009926553,0.38457197,-0.007809045,-0.13162887,-2.7,-1.5937501,-35.25
1763129420559,-0.8967103,6.890133,7.0378895,-0.11178826,-0.023976443,0.009926553,0.38349587,-0.007842972,-0.13186775,-2.7,-1.5937501,-35.25
1763129420559,-0.8967103,6.890133,7.0378895,-0.11178826,-0.023976443,0.009926553,0.38349587,-0.007842972,-0.13186775,-2.68125,-3.2062502,-34.96875
1763129420568,-0.8967103,6.890133,7.0378895,-0.056046844,-0.008093959,0.020769402,0.38349587,-0.007842972,-0.13186775,-2.68125,-3.2062502,-34.96875
1763129420569,-0.76749784,6.9056864,7.1629148,-0.056046844,-0.008093959,0.020769402,0.38349587,-0.007842972,-0.13186775,-2.68125,-3.2062502,-34.96875
1763129420579,-0.76749784,6.9056864,7.1629148,-0.056046844,-0.008093959,0.020769402,0.3828337,-0.007891632,-0.1318541,-2.68125,-3.2062502,-34.96875
1763129420579,-0.76749784,6.9056864,7.1629148,-0.056046844,-0.008093959,0.020769402,0.3828337,-0.007891632,-0.1318541,-6.5437503,-4.0687504,-32.25
1763129420590,-0.76749784,6.9056864,7.1629148,-0.02046397,0.011453714,0.0021380268,0.3828337,-0.007891632,-0.1318541,-6.5437503,-4.0687504,-32.25
1763129420592,-0.80997044,6.8446693,6.969096,-0.02046397,0.011453714,0.0021380268,0.3828337,-0.007891632,-0.1318541,-6.5437503,-4.0687504,-32.25
1763129420597,-0.80997044,6.8446693,6.969096,-0.02046397,0.011453714,0.0021380268,0.38240865,-0.007845848,-0.13164143,-6.5437503,-4.0687504,-32.25
1763129420598,-0.80997044,6.8446693,6.969096,-0.02046397,0.011453714,0.0021380268,0.38240865,-0.007845848,-0.13164143,-3.73125,-2.98125,-36.24375
1763129420612,-0.80997044,6.8446693,6.969096,-0.023365578,0.0019853106,0.0097738365,0.38240865,-0.007845848,-0.13164143,-3.73125,-2.98125,-36.24375
1763129420613,-0.84406817,6.8596244,6.8464637,-0.023365578,0.0019853106,0.0097738365,0.38240865,-0.007845848,-0.13164143,-3.73125,-2.98125,-36.24375
1763129420619,-0.84406817,6.8596244,6.8464637,-0.023365578,0.0019853106,0.0097738365,0.382114,-0.007864055,-0.13148211,-3.73125,-2.98125,-36.24375
1763129420620,-0.84406817,6.8596244,6.8464637,-0.023365578,0.0019853106,0.0097738365,0.382114,-0.007864055,-0.13148211,-2.9625,-3.7687502,-36.7125
1763129420632,-0.84406817,6.8596244,6.8464637,-0.024281874,-0.02046397,-0.0012217296,0.382114,-0.007864055,-0.13148211,-2.9625,-3.7687502,-36.7125
1763129420633,-0.7926225,6.9009004,6.9278197,-0.024281874,-0.02046397,-0.0012217296,0.382114,-0.007864055,-0.13148211,-2.9625,-3.7687502,-36.7125
1763129420637,-0.7926225,6.9009004,6.9278197,-0.024281874,-0.02046397,-0.0012217296,0.3819507,-0.008013148,-0.1315644,-2.9625,-3.7687502,-36.7125
1763129420638,-0.7926225,6.9009004,6.9278197,-0.024281874,-0.02046397,-0.0012217296,0.3819507,-0.008013148,-0.1315644,-2.4562502,-2.1937501,-36.075
1763129420653,-0.7926225,6.9009004,6.9278197,-0.008704823,-0.013133593,-0.01527162,0.3819507,-0.008013148,-0.1315644,-2.4562502,-2.1937501,-36.075
1763129420655,-0.8650054,6.83091,6.954739,-0.008704823,-0.013133593,-0.01527162,0.3819507,-0.008013148,-0.1315644,-2.4562502,-2.1937501,-36.075
1763129420659,-0.8650054,6.83091,6.954739,-0.008704823,-0.013133593,-0.01527162,0.3819507,-0.008013148,-0.1315644,-3.5812502,-3.9,-35.8125
1763129420660,-0.8650054,6.83091,6.954739,-0.008704823,-0.013133593,-0.01527162,0.38189548,-0.008107904,-0.13162294,-3.5812502,-3.9,-35.8125
1763129420675,-0.8650054,6.83091,6.954739,-0.010384701,-0.008552107,0.0033597562,0.38189548,-0.008107904,-0.13162294,-3.5812502,-3.9,-35.8125
1763129420675,-0.9062816,6.8039913,6.9744797,-0.010384701,-0.008552107,0.0033597562,0.38189548,-0.008107904,-0.13162294,-3.5812502,-3.9,-35.8125
1763129420679,-0.9062816,6.8039913,6.9744797,-0.010384701,-0.008552107,0.0033597562,0.38189548,-0.008107904,-0.13162294,-3.80625,-3.45,-34.78125
1763129420680,-0.9062816,6.8039913,6.9744797,-0.010384701,-0.008552107,0.0033597562,0.38173428,-0.008165868,-0.13171463,-3.80625,-3.45,-34.78125
1763129420695,-0.9062816,6.8039913,6.9744797,0.022143848,-0.010690134,0.014813471,0.38173428,-0.008165868,-0.13171463,-3.80625,-3.45,-34.78125
1763129420696,-0.76749784,6.856633,7.042675,0.022143848,-0.010690134,0.014813471,0.38173428,-0.008165868,-0.13171463,-3.80625,-3.45,-34.78125
1763129420699,-0.76749784,6.856633,7.042675,0.022143848,-0.010690134,0.014813471,0.38183004,-0.008299729,-0.1318306,-3.80625,-3.45,-34.78125
1763129420700,-0.76749784,6.856633,7.042675,0.022143848,-0.010690134,0.014813471,0.38183004,-0.008299729,-0.1318306,-3.35625,-3.1875002,-33.506252
1763129420716,-0.76749784,6.856633,7.042675,0.035124727,0.02489274,-0.017409647,0.38183004,-0.008299729,-0.1318306,-3.35625,-3.1875002,-33.506252
1763129420717,-0.79740816,6.81775,6.9565334,0.035124727,0.02489274,-0.017409647,0.38183004,-0.008299729,-0.1318306,-3.35625,-3.1875002,-33.506252
1763129420719,-0.79740816,6.81775,6.9565334,0.035124727,0.02489274,-0.017409647,0.38205427,-0.008108743,-0.1317496,-3.35625,-3.1875002,-33.506252
1763129420721,-0.79740816,6.81775,6.9565334,0.035124727,0.02489274,-0.017409647,0.38205427,-0.008108743,-0.1317496,-2.71875,-3.0375001,-34.40625
1763129420739,-0.79740816,6.81775,6.9565334,0.035124727,0.02489274,-0.017409647,0.3820592,-0.007778221,-0.13170542,-2.71875,-3.0375001,-34.40625
1763129420740,-0.79740816,6.81775,6.9565334,0.0050396346,0.032070402,-0.017867794,0.3820592,-0.007778221,-0.13170542,-2.71875,-3.0375001,-34.40625
1763129420741,-0.8757731,6.8542404,6.7429743,0.0050396346,0.032070402,-0.017867794,0.3820592,-0.007778221,-0.13170542,-2.71875,-3.0375001,-34.40625
1763129420742,-0.8757731,6.8542404,6.7429743,0.0050396346,0.032070402,-0.017867794,0.3820592,-0.007778221,-0.13170542,-1.7437501,-3.3187501,-36.6375
1763129420758,-0.8757731,6.8542404,6.7429743,0.0035124724,0.00320704,-0.018936807,0.3820592,-0.007778221,-0.13170542,-1.7437501,-3.3187501,-36.6375
1763129420759,-0.8757731,6.8542404,6.7429743,0.0035124724,0.00320704,-0.018936807,0.38230345,-0.0076420577,-0.13189062,-1.7437501,-3.3187501,-36.6375
1763129420762,-0.8757731,6.8542404,6.7429743,0.0035124724,0.00320704,-0.018936807,0.38230345,-0.0076420577,-0.13189062,-2.53125,-2.53125,-36.15
1763129420763,-0.84107715,6.863812,6.8709903,0.0035124724,0.00320704,-0.018936807,0.38230345,-0.0076420577,-0.13189062,-2.53125,-2.53125,-36.15
1763129420778,-0.84107715,6.863812,6.8709903,0.0035124724,0.00320704,-0.018936807,0.38230345,-0.0076420577,-0.13189062,-2.4375,-3.0,-36.91875
1763129420779,-0.84107715,6.863812,6.8709903,0.013286309,0.02443459,-0.022754714,0.38230345,-0.0076420577,-0.13189062,-2.4375,-3.0,-36.91875
1763129420781,-0.87218386,6.8129644,6.715457,0.013286309,0.02443459,-0.022754714,0.38230345,-0.0076420577,-0.13189062,-2.4375,-3.0,-36.91875
1763129420782,-0.87218386,6.8129644,6.715457,0.013286309,0.02443459,-0.022754714,0.38252068,-0.0073438804,-0.13195898,-2.4375,-3.0,-36.91875
1763129420797,-0.87218386,6.8129644,6.715457,0.013286309,0.02443459,-0.022754714,0.38252068,-0.0073438804,-0.13195898,-2.11875,-0.99375004,-37.050003
1763129420800,-0.87218386,6.8129644,6.715457,0.0074830935,-0.014202606,0.0050396346,0.38252068,-0.0073438804,-0.13195898,-2.11875,-0.99375004,-37.050003
1763129420801,-0.87218386,6.8129644,6.715457,0.0074830935,-0.014202606,0.0050396346,0.38274574,-0.007479785,-0.1319844,-2.11875,-0.99375004,-37.050003
1763129420802,-1.0001999,6.7848487,6.6963143,0.0074830935,-0.014202606,0.0050396346,0.38274574,-0.007479785,-0.1319844,-2.11875,-0.99375004,-37.050003
1763129420818,-1.0001999,6.7848487,6.6963143,0.0074830935,-0.014202606,0.0050396346,0.38274574,-0.007479785,-0.1319844,-3.80625,-4.1062503,-35.2125
1763129420821,-1.0001999,6.7848487,6.6963143,-0.010690134,-0.010690134,0.029474225,0.38274574,-0.007479785,-0.1319844,-3.80625,-4.1062503,-35.2125
1763129420822,-0.7896315,6.7794647,6.6281185,-0.010690134,-0.010690134,0.029474225,0.38274574,-0.007479785,-0.1319844,-3.80625,-4.1062503,-35.2125
1763129420823,-0.7896315,6.7794647,6.6281185,-0.010690134,-0.010690134,0.029474225,0.3828088,-0.0075433133,-0.13209382,-3.80625,-4.1062503,-35.2125
1763129420838,-0.7896315,6.7794647,6.6281185,-0.010690134,-0.010690134,0.029474225,0.3828088,-0.0075433133,-0.13209382,-4.0687504,-4.0125003,-36.525
1763129420842,-0.7896315,6.7794647,6.6281185,-0.019394957,-0.041538805,0.014813471,0.3828088,-0.0075433133,-0.13209382,-4.0687504,-4.0125003,-36.525
1763129420843,-0.7896315,6.7794647,6.6281185,-0.019394957,-0.041538805,0.014813471,0.38278523,-0.007999554,-0.13195238,-4.0687504,-4.0125003,-36.525
1763129420846,-0.657428,6.8709903,6.6885376,-0.019394957,-0.041538805,0.014813471,0.38278523,-0.007999554,-0.13195238,-4.0687504,-4.0125003,-36.525
1763129420857,-0.657428,6.8709903,6.6885376,-0.019394957,-0.041538805,0.014813471,0.38278523,-0.007999554,-0.13195238,-5.175,-5.2125,-34.55625
1763129420863,-0.657428,6.8709903,6.6885376,-0.019394957,-0.041538805,0.014813471,0.38273448,-0.00874262,-0.13192996,-5.175,-5.2125,-34.55625
1763129420864,-0.7262217,6.88774,6.6077795,-0.019394957,-0.041538805,0.014813471,0.38273448,-0.00874262,-0.13192996,-5.175,-5.2125,-34.55625
1763129420865,-0.7262217,6.88774,6.6077795,-0.019394957,-0.07498365,-0.019547673,0.38273448,-0.00874262,-0.13192996,-5.175,-5.2125,-34.55625
1763129420877,-0.7262217,6.88774,6.6077795,-0.019394957,-0.07498365,-0.019547673,0.38273448,-0.00874262,-0.13192996,-2.68125,-3.2062502,-36.018753
1763129420885,-0.7262217,6.88774,6.6077795,-0.041691523,-0.124616414,-0.023823727,0.38273448,-0.00874262,-0.13192996,-2.68125,-3.2062502,-36.018753
1763129420886,-0.7262217,6.88774,6.6077795,-0.041691523,-0.124616414,-0.023823727,0.38253167,-0.009838204,-0.13233258,-2.68125,-3.2062502,-36.018753
1763129420887,-0.8554341,6.8255267,6.708278,-0.041691523,-0.124616414,-0.023823727,0.38253167,-0.009838204,-0.13233258,-2.68125,-3.2062502,-36.018753
1763129420898,-0.8554341,6.8255267,6.708278,-0.041691523,-0.124616414,-0.023823727,0.38253167,-0.009838204,-0.13233258,-5.86875,-4.74375,-35.79375
1763129420905,-0.8554341,6.8255267,6.708278,-0.041691523,-0.124616414,-0.023823727,0.38207272,-0.0113079725,-0.13313122,-5.86875,-4.74375,-35.79375
1763129420906,-0.8554341,6.8255267,6.708278,-0.046273008,-0.16386448,0.0025961753,0.38207272,-0.0113079725,-0.13313122,-5.86875,-4.74375,-35.79375
1763129420907,-0.8554341,6.7369924,6.795616,-0.046273008,-0.16386448,0.0025961753,0.38207272,-0.0113079725,-0.13313122,-5.86875,-4.74375,-35.79375
1763129420918,-0.8554341,6.7369924,6.795616,-0.046273008,-0.16386448,0.0025961753,0.38207272,-0.0113079725,-0.13313122,-3.1312501,-2.8312502,-35.34375
1763129420926,-0.78843504,6.706484,6.9074807,-0.046273008,-0.16386448,0.0025961753,0.38207272,-0.0113079725,-0.13313122,-3.1312501,-2.8312502,-35.34375
1763129420927,-0.78843504,6.706484,6.9074807,-0.011148282,-0.17883067,0.009162972,0.38207272,-0.0113079725,-0.13313122,-3.1312501,-2.8312502,-35.34375
1763129420937,-0.78843504,6.706484,6.9074807,-0.011148282,-0.17883067,0.009162972,0.3817365,-0.012956165,-0.13400418,-3.1312501,-2.8312502,-35.34375
1763129420938,-0.78843504,6.706484,6.9074807,-0.011148282,-0.17883067,0.009162972,0.3817365,-0.012956165,-0.13400418,-4.275,-4.3875003,-35.4375
1763129420947,-0.78843504,6.706484,6.9074807,-0.007941242,-0.12782346,0.012217295,0.3817365,-0.012956165,-0.13400418,-4.275,-4.3875003,-35.4375
1763129420948,-0.66161543,6.8225355,6.6885376,-0.007941242,-0.12782346,0.012217295,0.3817365,-0.012956165,-0.13400418,-4.275,-4.3875003,-35.4375
1763129420957,-0.66161543,6.8225355,6.6885376,-0.007941242,-0.12782346,0.012217295,0.3813374,-0.014172635,-0.13456044,-4.275,-4.3875003,-35.4375
1763129420958,-0.66161543,6.8225355,6.6885376,-0.007941242,-0.12782346,0.012217295,0.3813374,-0.014172635,-0.13456044,-5.4,-3.6750002,-36.09375
1763129420967,-0.66161543,6.8225355,6.6885376,0.0015271619,-0.038026333,-0.0027488915,0.3813374,-0.014172635,-0.13456044,-5.4,-3.6750002,-36.09375
1763129420968,-0.68255264,6.821339,6.2787666,0.0015271619,-0.038026333,-0.0027488915,0.3813374,-0.014172635,-0.13456044,-5.4,-3.6750002,-36.09375
1763129420978,-0.68255264,6.821339,6.2787666,0.0015271619,-0.038026333,-0.0027488915,0.3815199,-0.014586448,-0.13448827,-5.4,-3.6750002,-36.09375
1763129420978,-0.68255264,6.821339,6.2787666,0.0015271619,-0.038026333,-0.0027488915,0.3815199,-0.014586448,-0.13448827,-5.8125,-5.2125,-34.912502
1763129420989,-0.68255264,6.821339,6.2787666,-0.0070249448,-0.25060728,-0.04886918,0.3815199,-0.014586448,-0.13448827,-5.8125,-5.2125,-34.912502
1763129420990,-0.88354975,6.771688,6.454041,-0.0070249448,-0.25060728,-0.04886918,0.3815199,-0.014586448,-0.13448827,-5.8125,-5.2125,-34.912502
1763129420998,-0.88354975,6.771688,6.454041,-0.0070249448,-0.25060728,-0.04886918,0.38179418,-0.016779259,-0.13571149,-5.8125,-5.2125,-34.912502
1763129420999,-0.88354975,6.771688,6.454041,-0.0070249448,-0.25060728,-0.04886918,0.38179418,-0.016779259,-0.13571149,-2.9625,-1.35,-36.600002
1763129421010,-0.88354975,6.771688,6.454041,-0.08491021,-0.23961172,0.0021380268,0.38179418,-0.016779259,-0.13571149,-2.9625,-1.35,-36.600002
1763129421011,-0.6095716,6.7794647,6.5407805,-0.08491021,-0.23961172,0.0021380268,0.38179418,-0.016779259,-0.13571149,-2.9625,-1.35,-36.600002
1763129421019,-0.6095716,6.7794647,6.5407805,-0.08491021,-0.23961172,0.0021380268,0.38111705,-0.018765632,-0.13705063,-2.9625,-1.35,-36.600002
1763129421020,-0.6095716,6.7794647,6.5407805,-0.08491021,-0.23961172,0.0021380268,0.38111705,-0.018765632,-0.13705063,-4.03125,-2.86875,-33.9375
1763129421031,-0.6095716,6.7794647,6.5407805,-0.17867795,-0.25137085,-0.043371398,0.38111705,-0.018765632,-0.13705063,-4.03125,-2.86875,-33.9375
1763129421032,-0.60000026,6.9278197,7.238887,-0.17867795,-0.25137085,-0.043371398,0.38111705,-0.018765632,-0.13705063,-4.03125,-2.86875,-33.9375
1763129421037,-0.60000026,6.9278197,7.238887,-0.17867795,-0.25137085,-0.043371398,0.37944677,-0.02076166,-0.13828345,-4.03125,-2.86875,-33.9375
1763129421038,-0.60000026,6.9278197,7.238887,-0.17867795,-0.25137085,-0.043371398,0.37944677,-0.02076166,-0.13828345,-5.08125,-4.2375,-34.350002
1763129421052,-0.60000026,6.9278197,7.238887,-0.24495678,-0.0810923,-0.043982264,0.37944677,-0.02076166,-0.13828345,-5.08125,-4.2375,-34.350002
1763129421053,-0.89312106,6.674779,7.9166536,-0.24495678,-0.0810923,-0.043982264,0.37944677,-0.02076166,-0.13828345,-5.08125,-4.2375,-34.350002
1763129421058,-0.89312106,6.674779,7.9166536,-0.24495678,-0.0810923,-0.043982264,0.37683815,-0.021057328,-0.13895625,-5.08125,-4.2375,-34.350002
1763129421059,-0.89312106,6.674779,7.9166536,-0.24495678,-0.0810923,-0.043982264,0.37683815,-0.021057328,-0.13895625,-5.625,-3.9,-36.7125
1763129421073,-0.89312106,6.674779,7.9166536,-0.14767656,0.008857539,0.037873615,0.37683815,-0.021057328,-0.13895625,-5.625,-3.9,-36.7125
1763129421074,-0.91585284,6.263213,7.853244,-0.14767656,0.008857539,0.037873615,0.37683815,-0.021057328,-0.13895625,-5.625,-3.9,-36.7125
1763129421079,-0.91585284,6.263213,7.853244,-0.14767656,0.008857539,0.037873615,0.37433276,-0.020720739,-0.13952708,-5.625,-3.9,-36.7125
1763129421080,-0.91585284,6.263213,7.853244,-0.14767656,0.008857539,0.037873615,0.37433276,-0.020720739,-0.13952708,-4.40625,-3.6000001,-35.662502
1763129421109,-0.91585284,6.263213,7.853244,0.09010255,-0.011759147,0.039553493,0.37433276,-0.020720739,-0.13952708,-4.40625,-3.6000001,-35.662502
1763129421111,-0.97926265,6.7585278,7.4356966,0.09010255,-0.011759147,0.039553493,0.37433276,-0.020720739,-0.13952708,-4.40625,-3.6000001,-35.662502
1763129421112,-0.97926265,6.7585278,7.4356966,0.09010255,-0.011759147,0.039553493,0.37369877,-0.020898376,-0.14037807,-4.40625,-3.6000001,-35.662502
1763129421112,-0.97926265,6.7585278,7.4356966,0.09010255,-0.011759147,0.039553493,0.37369877,-0.020898376,-0.14037807,-5.53125,-2.90625,-36.037502
