timestamp,accX,accY,accZ,gyroX,gyroY,gyroZ,rotX,rotY,rotZ,magX,magY,magZ
1763129274298,-1.8460627,8.464012,4.7808595,-0.30573782,-0.17623448,-0.06291907,0.37598532,-0.31176326,-0.69389665,5.9437504,-31.85625,-28.687502
1763129274299,-1.8460627,8.464012,4.7808595,-0.30573782,-0.17623448,-0.06291907,0.37257463,-0.31052685,-0.69518,5.9437504,-31.85625,-28.687502
1763129274299,-1.8460627,8.464012,4.7808595,-0.3440696,-0.240528,0.050243627,0.37257463,-0.31052685,-0.69518,5.9437504,-31.85625,-28.687502
1763129274300,-1.8460627,8.464012,4.7808595,-0.3440696,-0.240528,0.050243627,0.37257463,-0.31052685,-0.69518,3.73125,-33.318752,-27.300001
1763129274317,-1.8460627,8.464012,4.7808595,-0.3440696,-0.240528,0.050243627,0.37257463,-0.31052685,-0.69518,4.425,-32.175003,-26.175001
1763129274318,-1.8460627,8.464012,4.7808595,-0.29153523,-0.3338376,0.039858926,0.37257463,-0.31052685,-0.69518,4.425,-32.175003,-26.175001
1763129274319,-1.8460627,8.464012,4.7808595,-0.29153523,-0.3338376,0.039858926,0.36870372,-0.31023726,-0.696756,4.425,-32.175003,-26.175001
1763129274319,-1.3752748,8.513663,5.3850474,-0.29153523,-0.3338376,0.039858926,0.36870372,-0.31023726,-0.696756,4.425,-32.175003,-26.175001
1763129274339,-1.3752748,8.513663,5.3850474,-0.29153523,-0.3338376,0.039858926,0.36870372,-0.31023726,-0.696756,4.70625,-32.1375,-28.218752
1763129274340,-1.3752748,8.513663,5.3850474,-0.29153523,-0.3338376,0.039858926,0.36548427,-0.31030795,-0.69832635,4.70625,-32.1375,-28.218752
1763129274341,-1.3848461,8.481958,6.009574,-0.29153523,-0.3338376,0.039858926,0.36548427,-0.31030795,-0.69832635,4.70625,-32.1375,-28.218752
1763129274342,-1.3848461,8.481958,6.009574,-0.2112065,-0.27229297,0.010384701,0.36548427,-0.31030795,-0.69832635,4.70625,-32.1375,-28.218752
1763129274357,-1.3848461,8.481958,6.009574,-0.2112065,-0.27229297,0.010384701,0.36548427,-0.31030795,-0.69832635,5.86875,-29.925001,-28.1625
1763129274361,-1.4991034,8.364112,5.8731833,-0.2112065,-0.27229297,0.010384701,0.36548427,-0.31030795,-0.69832635,5.86875,-29.925001,-28.1625
1763129274362,-1.4991034,8.364112,5.8731833,-0.2112065,-0.27229297,0.010384701,0.3639854,-0.310319,-0.6995732,5.86875,-29.925001,-28.1625
1763129274362,-1.4991034,8.364112,5.8731833,-0.09117157,-0.113926284,-0.042607818,0.3639854,-0.310319,-0.6995732,5.86875,-29.925001,-28.1625
1763129274378,-1.4991034,8.364112,5.8731833,-0.09117157,-0.113926284,-0.042607818,0.3639854,-0.310319,-0.6995732,6.2250004,-29.7,-28.575
1763129274382,-1.4991034,8.364112,5.8731833,-0.031917684,-0.009926553,-0.089797124,0.3639854,-0.310319,-0.6995732,6.2250004,-29.7,-28.575
1763129274383,-1.4991034,8.364112,5.8731833,-0.031917684,-0.009926553,-0.089797124,0.36379594,-0.3099588,-0.70043963,6.2250004,-29.7,-28.575
1763129274384,-1.7599211,8.117651,5.528617,-0.031917684,-0.009926553,-0.089797124,0.36379594,-0.3099588,-0.70043963,6.2250004,-29.7,-28.575
1763129274397,-1.7599211,8.117651,5.528617,-0.031917684,-0.009926553,-0.089797124,0.36379594,-0.3099588,-0.70043963,4.7625003,-32.456253,-29.343752
1763129274403,-1.7599211,8.117651,5.528617,-0.031917684,-0.009926553,-0.089797124,0.36399335,-0.30925432,-0.7008725,4.7625003,-32.456253,-29.343752
1763129274404,-1.7599211,8.117651,5.528617,-0.03940078,0.038179047,-0.064904384,0.36399335,-0.30925432,-0.7008725,4.7625003,-32.456253,-29.343752
1763129274406,-1.9872392,7.9920278,5.465207,-0.03940078,0.038179047,-0.064904384,0.36399335,-0.30925432,-0.7008725,4.7625003,-32.456253,-29.343752
1763129274417,-1.9872392,7.9920278,5.465207,-0.03940078,0.038179047,-0.064904384,0.36399335,-0.30925432,-0.7008725,4.9500003,-29.831251,-27.712502
1763129274424,-1.9872392,7.9920278,5.465207,-0.03940078,0.038179047,-0.064904384,0.3644379,-0.30887708,-0.700894,4.9500003,-29.831251,-27.712502
1763129274425,-1.9872392,7.9920278,5.465207,0.0016798781,0.052381653,-0.024587307,0.3644379,-0.30887708,-0.700894,4.9500003,-29.831251,-27.712502
1763129274426,-2.0721843,7.9076805,5.355137,0.0016798781,0.052381653,-0.024587307,0.3644379,-0.30887708,-0.700894,4.9500003,-29.831251,-27.712502
1763129274437,-2.0721843,7.9076805,5.355137,0.0016798781,0.052381653,-0.024587307,0.3644379,-0.30887708,-0.700894,5.34375,-30.54375,-28.1625
1763129274444,-2.0721843,7.9076805,5.355137,0.0016798781,0.052381653,-0.024587307,0.36498776,-0.30913597,-0.70071054,5.34375,-30.54375,-28.1625
1763129274445,-2.0721843,7.9076805,5.355137,0.06169734,0.023060145,-0.007941242,0.36498776,-0.30913597,-0.70071054,5.34375,-30.54375,-28.1625
1763129274445,-2.0925233,7.816155,5.1122656,0.06169734,0.023060145,-0.007941242,0.36498776,-0.30913597,-0.70071054,5.34375,-30.54375,-28.1625
1763129274458,-2.0925233,7.816155,5.1122656,0.06169734,0.023060145,-0.007941242,0.36498776,-0.30913597,-0.70071054,6.0937505,-29.56875,-29.550001
1763129274466,-2.0925233,7.816155,5.1122656,0.053145237,0.010384701,0.0018325944,0.36498776,-0.30913597,-0.70071054,6.0937505,-29.56875,-29.550001
1763129274466,-2.0147567,7.912466,4.959723,0.053145237,0.010384701,0.0018325944,0.36498776,-0.30913597,-0.70071054,6.0937505,-29.56875,-29.550001
1763129274478,-2.0147567,7.912466,4.959723,0.053145237,0.010384701,0.0018325944,0.36545148,-0.30938846,-0.7004415,6.0937505,-29.56875,-29.550001
1763129274480,-2.0147567,7.912466,4.959723,0.053145237,0.010384701,0.0018325944,0.36545148,-0.30938846,-0.7004415,6.4687505,-29.775002,-26.812502
1763129274486,-2.0147567,7.912466,4.959723,-0.032070402,0.035582874,-0.009010255,0.36545148,-0.30938846,-0.7004415,6.4687505,-29.775002,-26.812502
1763129274487,-1.9058832,7.969894,4.8029933,-0.032070402,0.035582874,-0.009010255,0.36545148,-0.30938846,-0.7004415,6.4687505,-29.775002,-26.812502
1763129274498,-1.9058832,7.969894,4.8029933,-0.032070402,0.035582874,-0.009010255,0.36573854,-0.30880147,-0.70028037,6.4687505,-29.775002,-26.812502
1763129274498,-1.9058832,7.969894,4.8029933,-0.032070402,0.035582874,-0.009010255,0.36573854,-0.30880147,-0.70028037,6.7875004,-30.0375,-28.0125
1763129274508,-1.9058832,7.969894,4.8029933,-0.12904519,0.030390523,-0.008704823,0.36573854,-0.30880147,-0.70028037,6.7875004,-30.0375,-28.0125
1763129274509,-1.8867407,7.944171,4.9088755,-0.12904519,0.030390523,-0.008704823,0.36573854,-0.30880147,-0.70028037,6.7875004,-30.0375,-28.0125
1763129274517,-1.8867407,7.944171,4.9088755,-0.12904519,0.030390523,-0.008704823,0.36551914,-0.30750445,-0.70031923,6.7875004,-30.0375,-28.0125
1763129274518,-1.8867407,7.944171,4.9088755,-0.12904519,0.030390523,-0.008704823,0.36551914,-0.30750445,-0.70031923,4.0687504,-32.11875,-28.275002
1763129274529,-1.8867407,7.944171,4.9088755,-0.1386663,0.01282816,0.013591741,0.36551914,-0.30750445,-0.70031923,4.0687504,-32.11875,-28.275002
1763129274529,-1.8586249,7.8723865,5.1146584,-0.1386663,0.01282816,0.013591741,0.36551914,-0.30750445,-0.70031923,4.0687504,-32.11875,-28.275002
1763129274538,-1.8586249,7.8723865,5.1146584,-0.1386663,0.01282816,0.013591741,0.36499745,-0.30634767,-0.7003896,4.0687504,-32.11875,-28.275002
1763129274539,-1.8586249,7.8723865,5.1146584,-0.1386663,0.01282816,0.013591741,0.36499745,-0.30634767,-0.7003896,-1.5187501,-34.331253,-22.96875
1763129274550,-1.8586249,7.8723865,5.1146584,-0.07437278,-0.03970621,0.032375835,0.36499745,-0.30634767,-0.7003896,-1.5187501,-34.331253,-22.96875
1763129274551,-1.82692,7.9633136,5.1409793,-0.07437278,-0.03970621,0.032375835,0.36499745,-0.30634767,-0.7003896,-1.5187501,-34.331253,-22.96875
1763129274558,-1.82692,7.9633136,5.1409793,-0.07437278,-0.03970621,0.032375835,0.364278,-0.30608833,-0.7004953,-1.5187501,-34.331253,-22.96875
1763129274559,-1.82692,7.9633136,5.1409793,-0.07437278,-0.03970621,0.032375835,0.364278,-0.30608833,-0.7004953,-1.5187501,-34.331253,-22.96875
1763129274571,-1.82692,7.9633136,5.1409793,-0.025503604,-0.07849612,0.04046979,0.364278,-0.30608833,-0.7004953,-1.5187501,-34.331253,-22.96875
1763129274572,-1.7018951,8.098508,5.087141,-0.025503604,-0.07849612,0.04046979,0.364278,-0.30608833,-0.7004953,-1.5187501,-34.331253,-22.96875
1763129274578,-1.7018951,8.098508,5.087141,-0.025503604,-0.07849612,0.04046979,0.36353025,-0.306434,-0.7005226,-1.5187501,-34.331253,-22.96875
1763129274579,-1.7018951,8.098508,5.087141,-0.025503604,-0.07849612,0.04046979,0.36353025,-0.306434,-0.7005226,5.55,-30.337502,-28.29375
1763129274592,-1.7018951,8.098508,5.087141,-0.04963276,-0.062460925,0.008399391,0.36353025,-0.306434,-0.7005226,5.55,-30.337502,-28.29375
1763129274594,-1.5104693,8.191829,5.272585,-0.04963276,-0.062460925,0.008399391,0.36353025,-0.306434,-0.7005226,5.55,-30.337502,-28.29375
1763129274598,-1.5104693,8.191829,5.272585,-0.04963276,-0.062460925,0.008399391,0.36290663,-0.30638435,-0.7006544,5.55,-30.337502,-28.29375
1763129274599,-1.5104693,8.191829,5.272585,-0.04963276,-0.062460925,0.008399391,0.36290663,-0.30638435,-0.7006544,7.74375,-29.5125,-29.081251
1763129274613,-1.5104693,8.191829,5.272585,-0.07391464,0.0074830935,-0.04046979,0.36290663,-0.30638435,-0.7006544,7.74375,-29.5125,-29.081251
1763129274614,-1.6211374,8.170293,5.365905,-0.07391464,0.0074830935,-0.04046979,0.36290663,-0.30638435,-0.7006544,7.74375,-29.5125,-29.081251
1763129274620,-1.6211374,8.170293,5.365905,-0.07391464,0.0074830935,-0.04046979,0.36272106,-0.30565584,-0.7009467,7.74375,-29.5125,-29.081251
1763129274621,-1.6211374,8.170293,5.365905,-0.07391464,0.0074830935,-0.04046979,0.36272106,-0.30565584,-0.7009467,5.5875,-29.831251,-27.35625
1763129274634,-1.6211374,8.170293,5.365905,-0.053145237,0.010079269,-0.05299252,0.36272106,-0.30565584,-0.7009467,5.5875,-29.831251,-27.35625
1763129274635,-1.82692,8.09133,5.278567,-0.053145237,0.010079269,-0.05299252,0.36272106,-0.30565584,-0.7009467,5.5875,-29.831251,-27.35625
1763129274638,-1.82692,8.09133,5.278567,-0.053145237,0.010079269,-0.05299252,0.36269182,-0.305017,-0.7012845,5.5875,-29.831251,-27.35625
1763129274639,-1.82692,8.09133,5.278567,-0.053145237,0.010079269,-0.05299252,0.36269182,-0.305017,-0.7012845,6.7125,-31.181252,-27.73125
1763129274655,-1.82692,8.09133,5.278567,-0.016035201,-0.031154104,-0.01527162,0.36269182,-0.305017,-0.7012845,6.7125,-31.181252,-27.73125
1763129274656,-1.9441684,7.9357963,5.2863436,-0.016035201,-0.031154104,-0.01527162,0.36269182,-0.305017,-0.7012845,6.7125,-31.181252,-27.73125
1763129274657,-1.9441684,7.9357963,5.2863436,-0.016035201,-0.031154104,-0.01527162,0.36466184,-0.30239332,-0.69763,6.7125,-31.181252,-27.73125
1763129274658,-1.9441684,7.9357963,5.2863436,-0.016035201,-0.031154104,-0.01527162,0.36466184,-0.30239332,-0.69763,6.4687505,-29.643751,-28.518751
1763129274676,-1.9441684,7.9357963,5.2863436,0.00962112,-0.057115857,0.019853106,0.36466184,-0.30239332,-0.69763,6.4687505,-29.643751,-28.518751
1763129274677,-1.9250258,7.925029,5.096712,0.00962112,-0.057115857,0.019853106,0.36466184,-0.30239332,-0.69763,6.4687505,-29.643751,-28.518751
1763129274679,-1.9250258,7.925029,5.096712,0.00962112,-0.057115857,0.019853106,0.36670136,-0.29990438,-0.69335765,6.4687505,-29.643751,-28.518751
1763129274680,-1.9250258,7.925029,5.096712,0.00962112,-0.057115857,0.019853106,0.36670136,-0.29990438,-0.69335765,4.9125004,-31.7625,-29.025002
1763129274699,-1.9250258,7.925029,5.096712,-0.031154104,-0.12797616,0.04703659,0.36670136,-0.29990438,-0.69335765,4.9125004,-31.7625,-29.025002
1763129274705,-1.8747765,7.9710903,4.9788656,-0.031154104,-0.12797616,0.04703659,0.36670136,-0.29990438,-0.69335765,4.9125004,-31.7625,-29.025002
1763129274706,-1.8747765,7.9710903,4.9788656,-0.031154104,-0.12797616,0.04703659,0.36810887,-0.29740947,-0.688925,4.9125004,-31.7625,-29.025002
1763129274707,-1.8747765,7.9710903,4.9788656,-0.031154104,-0.12797616,0.04703659,0.36810887,-0.29740947,-0.688925,4.7625003,-32.4375,-28.275002
1763129274721,-1.8747765,7.9710903,4.9788656,-0.031154104,-0.12797616,0.04703659,0.36810887,-0.29740947,-0.688925,4.7625003,-30.69375,-30.4125
1763129274722,-1.8747765,7.9710903,4.9788656,-0.06856957,-0.15851942,0.038026333,0.36810887,-0.29740947,-0.688925,4.7625003,-30.69375,-30.4125
1763129274724,-1.7036897,8.09133,5.0739803,-0.06856957,-0.15851942,0.038026333,0.36810887,-0.29740947,-0.688925,4.7625003,-30.69375,-30.4125
1763129274725,-1.7036897,8.09133,5.0739803,-0.06856957,-0.15851942,0.038026333,0.36893204,-0.2950336,-0.6850431,4.7625003,-30.69375,-30.4125
1763129274739,-1.7036897,8.09133,5.0739803,-0.06856957,-0.15851942,0.038026333,0.36893204,-0.2950336,-0.6850431,3.9750001,-31.650002,-27.806252
1763129274740,-1.7036897,8.09133,5.0739803,-0.17989968,-0.12522727,-0.0151189035,0.36893204,-0.2950336,-0.6850431,3.9750001,-31.650002,-27.806252
1763129274742,-1.7036897,8.09133,5.0739803,-0.17989968,-0.12522727,-0.0151189035,0.36945036,-0.29150996,-0.68164,3.9750001,-31.650002,-27.806252
1763129274744,-1.6893328,7.880163,4.9453664,-0.17989968,-0.12522727,-0.0151189035,0.36945036,-0.29150996,-0.68164,3.9750001,-31.650002,-27.806252
1763129274757,-1.6893328,7.880163,4.9453664,-0.17989968,-0.12522727,-0.0151189035,0.36945036,-0.29150996,-0.68164,4.5750003,-31.218752,-29.41875
1763129274760,-1.6893328,7.880163,4.9453664,-0.27565274,-0.10980295,-0.012675445,0.36945036,-0.29150996,-0.68164,4.5750003,-31.218752,-29.41875
1763129274761,-1.6893328,7.880163,4.9453664,-0.27565274,-0.10980295,-0.012675445,0.36949,-0.28721914,-0.6783784,4.5750003,-31.218752,-29.41875
1763129274762,-1.8041883,7.8945203,5.209773,-0.27565274,-0.10980295,-0.012675445,0.36949,-0.28721914,-0.6783784,4.5750003,-31.218752,-29.41875
1763129274778,-1.8041883,7.8945203,5.209773,-0.27565274,-0.10980295,-0.012675445,0.36949,-0.28721914,-0.6783784,5.7937503,-29.325,-29.400002
1763129274781,-1.8041883,7.8945203,5.209773,-0.27565274,-0.12858704,0.00320704,0.36949,-0.28721914,-0.6783784,5.7937503,-29.325,-29.400002
1763129274783,-1.7623138,7.827521,5.299504,-0.27565274,-0.12858704,0.00320704,0.36949,-0.28721914,-0.6783784,5.7937503,-29.325,-29.400002
1763129274798,-1.7623138,7.827521,5.299504,-0.27565274,-0.12858704,0.00320704,0.36949,-0.28721914,-0.6783784,5.2312503,-29.925001,-27.45
1763129274802,-1.7623138,7.827521,5.299504,-0.23609924,-0.1594357,0.011148282,0.36949,-0.28721914,-0.6783784,5.2312503,-29.925001,-27.45
1763129274803,-1.7623138,7.827521,5.299504,-0.23609924,-0.1594357,0.011148282,0.37074602,-0.28180835,-0.67275363,5.2312503,-29.925001,-27.45
1763129274804,-1.7623138,7.827521,5.299504,-0.23609924,-0.1594357,0.011148282,0.3690674,-0.28052285,-0.6727491,5.2312503,-29.925001,-27.45
1763129274805,-1.6713866,7.9040914,5.5310097,-0.23609924,-0.1594357,0.011148282,0.3690674,-0.28052285,-0.6727491,5.2312503,-29.925001,-27.45
1763129274821,-1.6713866,7.9040914,5.5310097,-0.23609924,-0.1594357,0.011148282,0.3690674,-0.28052285,-0.6727491,4.5375004,-30.900002,-30.562502
1763129274823,-1.6713866,7.9040914,5.5310097,-0.23609924,-0.1594357,0.011148282,0.3673722,-0.2795744,-0.67318696,4.5375004,-30.900002,-30.562502
1763129274824,-1.6713866,7.9040914,5.5310097,-0.20341797,-0.12110394,-0.0025961753,0.3673722,-0.2795744,-0.67318696,4.5375004,-30.900002,-30.562502
1763129274825,-1.6187445,7.878967,5.633901,-0.20341797,-0.12110394,-0.0025961753,0.3673722,-0.2795744,-0.67318696,4.5375004,-30.900002,-30.562502
1763129274837,-1.6187445,7.878967,5.633901,-0.20341797,-0.12110394,-0.0025961753,0.3673722,-0.2795744,-0.67318696,3.6750002,-29.79375,-27.6375
1763129274844,-1.6187445,7.878967,5.633901,-0.18432845,-0.09376775,-0.01527162,0.3673722,-0.2795744,-0.67318696,3.6750002,-29.79375,-27.6375
1763129274846,-1.6187445,7.878967,5.633901,-0.18432845,-0.09376775,-0.01527162,0.36574182,-0.27874696,-0.67388606,3.6750002,-29.79375,-27.6375
1763129274848,-1.7210377,7.865806,5.6578293,-0.18432845,-0.09376775,-0.01527162,0.36574182,-0.27874696,-0.67388606,3.6750002,-29.79375,-27.6375
1763129274857,-1.7210377,7.865806,5.6578293,-0.18432845,-0.09376775,-0.01527162,0.36574182,-0.27874696,-0.67388606,5.0062504,-30.13125,-27.618752
1763129274865,-1.7210377,7.865806,5.6578293,-0.1753182,-0.08124501,0.0018325944,0.36574182,-0.27874696,-0.67388606,5.0062504,-30.13125,-27.618752
1763129274866,-1.7210377,7.865806,5.6578293,-0.1753182,-0.08124501,0.0018325944,0.36437145,-0.27780843,-0.67436194,5.0062504,-30.13125,-27.618752
1763129274868,-1.7551354,7.789834,5.610571,-0.1753182,-0.08124501,0.0018325944,0.36437145,-0.27780843,-0.67436194,5.0062504,-30.13125,-27.618752
1763129274878,-1.7551354,7.789834,5.610571,-0.1753182,-0.08124501,0.0018325944,0.36437145,-0.27780843,-0.67436194,5.3812504,-28.29375,-29.962502
1763129274885,-1.7551354,7.789834,5.610571,-0.15332706,-0.10537417,0.031917684,0.36437145,-0.27780843,-0.67436194,5.3812504,-28.29375,-29.962502
1763129274887,-1.7353946,7.8017983,5.697909,-0.15332706,-0.10537417,0.031917684,0.36437145,-0.27780843,-0.67436194,5.3812504,-28.29375,-29.962502
1763129274899,-1.7353946,7.8017983,5.697909,-0.15332706,-0.10537417,0.031917684,0.36304098,-0.27715024,-0.6745431,5.3812504,-28.29375,-29.962502
1763129274900,-1.7353946,7.8017983,5.697909,-0.15332706,-0.10537417,0.031917684,0.36304098,-0.27715024,-0.6745431,2.60625,-31.0125,-28.5375
1763129274907,-1.7353946,7.8017983,5.697909,-0.11102467,-0.09636392,0.03084867,0.36304098,-0.27715024,-0.6745431,2.60625,-31.0125,-28.5375
1763129274908,-1.5284154,7.8484583,5.937191,-0.11102467,-0.09636392,0.03084867,0.36304098,-0.27715024,-0.6745431,2.60625,-31.0125,-28.5375
1763129274917,-1.5284154,7.8484583,5.937191,-0.11102467,-0.09636392,0.03084867,0.36186415,-0.27684703,-0.67481184,2.60625,-31.0125,-28.5375
1763129274919,-1.5284154,7.8484583,5.937191,-0.11102467,-0.09636392,0.03084867,0.36186415,-0.27684703,-0.67481184,4.40625,-30.13125,-30.50625
1763129274927,-1.5284154,7.8484583,5.937191,-0.054825112,-0.024281874,0.0030543238,0.36186415,-0.27684703,-0.67481184,4.40625,-30.13125,-30.50625
1763129274928,-1.564906,7.771888,5.9497533,-0.054825112,-0.024281874,0.0030543238,0.36186415,-0.27684703,-0.67481184,4.40625,-30.13125,-30.50625
1763129274937,-1.564906,7.771888,5.9497533,-0.054825112,-0.024281874,0.0030543238,0.36186415,-0.27684703,-0.67481184,2.775,-31.44375,-26.400002
1763129274938,-1.564906,7.771888,5.9497533,-0.054825112,-0.024281874,0.0030543238,0.36078757,-0.27703255,-0.67568964,2.775,-31.44375,-26.400002
1763129274949,-1.564906,7.771888,5.9497533,-1.527162E-4,0.020158539,-0.00962112,0.36078757,-0.27703255,-0.67568964,2.775,-31.44375,-26.400002
1763129274950,-1.6863418,7.776674,5.71765,-1.527162E-4,0.020158539,-0.00962112,0.36078757,-0.27703255,-0.67568964,2.775,-31.44375,-26.400002
1763129274958,-1.6863418,7.776674,5.71765,-1.527162E-4,0.020158539,-0.00962112,0.3602659,-0.27734113,-0.67662525,2.775,-31.44375,-26.400002
1763129274959,-1.6863418,7.776674,5.71765,-1.527162E-4,0.020158539,-0.00962112,0.3602659,-0.27734113,-0.67662525,4.18125,-28.893751,-28.931252
1763129274970,-1.6863418,7.776674,5.71765,-0.010537418,0.028710645,-0.010231985,0.3602659,-0.27734113,-0.67662525,4.18125,-28.893751,-28.931252
1763129274970,-1.6510476,7.7910304,5.454439,-0.010537418,0.028710645,-0.010231985,0.3602659,-0.27734113,-0.67662525,4.18125,-28.893751,-28.931252
1763129274979,-1.6510476,7.7910304,5.454439,-0.010537418,0.028710645,-0.010231985,0.3606119,-0.27691615,-0.6764302,4.18125,-28.893751,-28.931252
1763129274979,-1.6510476,7.7910304,5.454439,-0.010537418,0.028710645,-0.010231985,0.3606119,-0.27691615,-0.6764302,2.1375,-32.23125,-26.98125
1763129274991,-1.6510476,7.7910304,5.454439,-0.062613636,-0.00962112,-0.008704823,0.3606119,-0.27691615,-0.6764302,2.1375,-32.23125,-26.98125
1763129274991,-1.634896,7.82453,5.3090754,-0.062613636,-0.00962112,-0.008704823,0.3606119,-0.27691615,-0.6764302,2.1375,-32.23125,-26.98125
1763129274997,-1.634896,7.82453,5.3090754,-0.062613636,-0.00962112,-0.008704823,0.3606119,-0.27691615,-0.6764302,2.30625,-30.768751,-27.7875
1763129274999,-1.634896,7.82453,5.3090754,-0.062613636,-0.00962112,-0.008704823,0.3611712,-0.2758759,-0.6751704,2.30625,-30.768751,-27.7875
1763129275012,-1.634896,7.82453,5.3090754,-0.12125666,-0.045509428,-0.021227552,0.3611712,-0.2758759,-0.6751704,2.30625,-30.768751,-27.7875
1763129275012,-1.5966109,7.8071823,5.4670014,-0.12125666,-0.045509428,-0.021227552,0.3611712,-0.2758759,-0.6751704,2.30625,-30.768751,-27.7875
1763129275017,-1.5966109,7.8071823,5.4670014,-0.12125666,-0.045509428,-0.021227552,0.36168915,-0.2742647,-0.6733864,2.30625,-30.768751,-27.7875
1763129275019,-1.5966109,7.8071823,5.4670014,-0.12125666,-0.045509428,-0.021227552,0.36168915,-0.2742647,-0.6733864,4.5,-28.500002,-28.650002
1763129275033,-1.5966109,7.8071823,5.4670014,-0.16264275,-0.036346454,-0.027336199,0.36168915,-0.2742647,-0.6733864,4.5,-28.500002,-28.650002
1763129275034,-1.6139588,7.7030945,5.581857,-0.16264275,-0.036346454,-0.027336199,0.36168915,-0.2742647,-0.6733864,4.5,-28.500002,-28.650002
1763129275038,-1.6139588,7.7030945,5.581857,-0.16264275,-0.036346454,-0.027336199,0.36155576,-0.27260244,-0.6723906,4.5,-28.500002,-28.650002
1763129275039,-1.6139588,7.7030945,5.581857,-0.16264275,-0.036346454,-0.027336199,0.36155576,-0.27260244,-0.6723906,5.4750004,-28.9125,-29.906252
1763129275054,-1.6139588,7.7030945,5.581857,-0.16142102,-0.052381653,-0.016951498,0.36155576,-0.27260244,-0.6723906,5.4750004,-28.9125,-29.906252
1763129275055,-1.6163517,7.701898,5.656633,-0.16142102,-0.052381653,-0.016951498,0.36155576,-0.27260244,-0.6723906,5.4750004,-28.9125,-29.906252
1763129275059,-1.6163517,7.701898,5.656633,-0.16142102,-0.052381653,-0.016951498,0.36085013,-0.2713426,-0.67215234,5.4750004,-28.9125,-29.906252
1763129275060,-1.6163517,7.701898,5.656633,-0.16142102,-0.052381653,-0.016951498,0.36085013,-0.2713426,-0.67215234,3.54375,-30.337502,-29.962502
1763129275074,-1.6163517,7.701898,5.656633,-0.13836087,-0.06994402,-0.010384701,0.36085013,-0.2713426,-0.67215234,3.54375,-30.337502,-29.962502
1763129275075,-1.5858432,7.7162547,5.741578,-0.13836087,-0.06994402,-0.010384701,0.36085013,-0.2713426,-0.67215234,3.54375,-30.337502,-29.962502
1763129275078,-1.5858432,7.7162547,5.741578,-0.13836087,-0.06994402,-0.010384701,0.3600159,-0.27045578,-0.6720836,3.54375,-30.337502,-29.962502
1763129275079,-1.5858432,7.7162547,5.741578,-0.13836087,-0.06994402,-0.010384701,0.3600159,-0.27045578,-0.6720836,4.1625004,-28.875002,-28.181252
1763129275096,-1.5858432,7.7162547,5.741578,-0.1244637,-0.06704241,-0.014355322,0.3600159,-0.27045578,-0.6720836,4.1625004,-28.875002,-28.181252
1763129275097,-1.6283158,7.6552377,5.7080784,-0.1244637,-0.06704241,-0.014355322,0.3600159,-0.27045578,-0.6720836,4.1625004,-28.875002,-28.181252
1763129275098,-1.6283158,7.6552377,5.7080784,-0.1244637,-0.06704241,-0.014355322,0.35912785,-0.26975888,-0.67219585,4.1625004,-28.875002,-28.181252
1763129275099,-1.6283158,7.6552377,5.7080784,-0.1244637,-0.06704241,-0.014355322,0.35912785,-0.26975888,-0.67219585,5.34375,-28.143751,-29.85
1763129275118,-1.6283158,7.6552377,5.7080784,-0.13469568,-0.059559315,-0.012064579,0.35912785,-0.26975888,-0.67219585,5.34375,-28.143751,-29.85
1763129275119,-1.6283158,7.6552377,5.7080784,-0.13469568,-0.059559315,-0.012064579,0.3583452,-0.26884514,-0.67221224,5.34375,-28.143751,-29.85
1763129275121,-1.6002002,7.664809,5.669793,-0.13469568,-0.059559315,-0.012064579,0.3583452,-0.26884514,-0.67221224,5.34375,-28.143751,-29.85
1763129275122,-1.6002002,7.664809,5.669793,-0.13469568,-0.059559315,-0.012064579,0.3583452,-0.26884514,-0.67221224,4.3875003,-30.13125,-29.456251
1763129275139,-1.5900307,7.673184,5.6931233,-0.13469568,-0.059559315,-0.012064579,0.3583452,-0.26884514,-0.67221224,4.3875003,-30.13125,-29.456251
1763129275140,-1.5900307,7.673184,5.6931233,-0.13469568,-0.059559315,-0.012064579,0.35752118,-0.26774433,-0.67196095,4.3875003,-30.13125,-29.456251
1763129275141,-1.5900307,7.673184,5.6931233,-0.13469568,-0.059559315,-0.012064579,0.35752118,-0.26774433,-0.67196095,3.3375,-30.0375,-28.575
1763129275142,-1.5900307,7.673184,5.6931233,-0.15775582,-0.07513637,-0.013286309,0.35752118,-0.26774433,-0.67196095,3.3375,-30.0375,-28.575
1763129275158,-1.5900307,7.673184,5.6931233,-0.15775582,-0.07513637,-0.013286309,0.35658866,-0.26642194,-0.67171997,3.3375,-30.0375,-28.575
1763129275160,-1.5900307,7.673184,5.6931233,-0.15775582,-0.07513637,-0.013286309,0.35658866,-0.26642194,-0.67171997,4.425,-28.837502,-29.175001
1763129275161,-1.5900307,7.673184,5.6931233,-0.1838703,-0.07910699,-0.021380268,0.35658866,-0.26642194,-0.67171997,4.425,-28.837502,-29.175001
1763129275163,-1.5918252,7.6743803,5.8037915,-0.1838703,-0.07910699,-0.021380268,0.35658866,-0.26642194,-0.67171997,4.425,-28.837502,-29.175001
1763129275178,-1.5918252,7.6743803,5.8037915,-0.1838703,-0.07910699,-0.021380268,0.35658866,-0.26642194,-0.67171997,2.0625,-30.675001,-30.000002
1763129275179,-1.5918252,7.6743803,5.8037915,-0.1838703,-0.07910699,-0.021380268,0.35699037,-0.26307583,-0.6686532,2.0625,-30.675001,-30.000002
1763129275181,-1.5918252,7.6743803,5.8037915,-0.19410229,-0.056046844,-0.033902995,0.35699037,-0.26307583,-0.6686532,2.0625,-30.675001,-30.000002
1763129275182,-1.5601203,7.6953177,6.081359,-0.19410229,-0.056046844,-0.033902995,0.35699037,-0.26307583,-0.6686532,2.0625,-30.675001,-30.000002
1763129275197,-1.5601203,7.6953177,6.081359,-0.19410229,-0.056046844,-0.033902995,0.35699037,-0.26307583,-0.6686532,4.78125,-27.000002,-30.468752
1763129275201,-1.5601203,7.6953177,6.081359,-0.16478078,-0.0050396346,-0.03649917,0.35699037,-0.26307583,-0.6686532,4.78125,-27.000002,-30.468752
1763129275203,-1.5732809,7.5936227,6.2997036,-0.16478078,-0.0050396346,-0.03649917,0.35699037,-0.26307583,-0.6686532,4.78125,-27.000002,-30.468752
1763129275204,-1.5732809,7.5936227,6.2997036,-0.16478078,-0.0050396346,-0.03649917,0.35804838,-0.25894058,-0.66443855,4.78125,-27.000002,-30.468752
1763129275219,-1.5732809,7.5936227,6.2997036,-0.16478078,-0.0050396346,-0.03649917,0.35804838,-0.25894058,-0.66443855,3.61875,-29.343752,-28.5375
1763129275222,-1.5732809,7.5936227,6.2997036,-0.16478078,-0.0050396346,-0.03649917,0.35835084,-0.2567831,-0.66299486,3.61875,-29.343752,-28.5375
1763129275223,-1.5732809,7.5936227,6.2997036,-0.076816246,0.041233372,-0.029932374,0.35835084,-0.2567831,-0.66299486,3.61875,-29.343752,-28.5375
1763129275224,-1.6941184,7.483553,6.2321067,-0.076816246,0.041233372,-0.029932374,0.35835084,-0.2567831,-0.66299486,3.61875,-29.343752,-28.5375
1763129275238,-1.6941184,7.483553,6.2321067,-0.076816246,0.041233372,-0.029932374,0.35835084,-0.2567831,-0.66299486,3.6937501,-28.2,-29.868752
1763129275242,-1.6941184,7.483553,6.2321067,0.012064579,0.03604102,-0.016798781,0.35835084,-0.2567831,-0.66299486,3.6937501,-28.2,-29.868752
1763129275243,-1.6941184,7.483553,6.2321067,0.012064579,0.03604102,-0.016798781,0.35976347,-0.25446612,-0.6601235,3.6937501,-28.2,-29.868752
1763129275244,-1.7180467,7.5122666,6.0155563,0.012064579,0.03604102,-0.016798781,0.35976347,-0.25446612,-0.6601235,3.6937501,-28.2,-29.868752
1763129275257,-1.7180467,7.5122666,6.0155563,0.012064579,0.03604102,-0.016798781,0.35976347,-0.25446612,-0.6601235,4.3125,-28.06875,-30.187502
1763129275264,-1.7180467,7.5122666,6.0155563,0.012064579,0.03604102,-0.016798781,0.36075208,-0.2535569,-0.6586851,4.3125,-28.06875,-30.187502
1763129275265,-1.7180467,7.5122666,6.0155563,0.03405571,0.026572619,-9.162972E-4,0.36075208,-0.2535569,-0.6586851,4.3125,-28.06875,-30.187502
1763129275266,-1.6588243,7.5122666,5.8193445,0.03405571,0.026572619,-9.162972E-4,0.36075208,-0.2535569,-0.6586851,4.3125,-28.06875,-30.187502
1763129275278,-1.6588243,7.5122666,5.8193445,0.03405571,0.026572619,-9.162972E-4,0.36075208,-0.2535569,-0.6586851,4.14375,-28.593752,-30.243752
1763129275284,-1.649253,7.509874,5.6536417,0.03405571,0.026572619,-9.162972E-4,0.36075208,-0.2535569,-0.6586851,4.14375,-28.593752,-30.243752
1763129275285,-1.649253,7.509874,5.6536417,-0.006261364,0.01725693,0.0027488915,0.36075208,-0.2535569,-0.6586851,4.14375,-28.593752,-30.243752
1763129275286,-1.649253,7.509874,5.6536417,-0.006261364,0.01725693,0.0027488915,0.362838,-0.2507806,-0.65408355,4.14375,-28.593752,-30.243752
1763129275298,-1.649253,7.509874,5.6536417,-0.006261364,0.01725693,0.0027488915,0.362838,-0.2507806,-0.65408355,2.025,-31.312502,-29.23125
1763129275306,-1.649253,7.509874,5.6536417,-0.048411034,-0.010079269,0.0074830935,0.362838,-0.2507806,-0.65408355,2.025,-31.312502,-29.23125
1763129275307,-1.6319051,7.55773,5.6506505,-0.048411034,-0.010079269,0.0074830935,0.362838,-0.2507806,-0.65408355,2.025,-31.312502,-29.23125
1763129275320,-1.6319051,7.55773,5.6506505,-0.048411034,-0.010079269,0.0074830935,0.362838,-0.2507806,-0.65408355,2.2687502,-30.45,-29.081251
1763129275321,-1.6319051,7.55773,5.6506505,-0.048411034,-0.010079269,0.0074830935,0.3649806,-0.24745028,-0.6485807,2.2687502,-30.45,-29.081251
1763129275327,-1.6319051,7.55773,5.6506505,-0.07513637,-0.027030766,0.0042760535,0.3649806,-0.24745028,-0.6485807,2.2687502,-30.45,-29.081251
1763129275328,-1.5972091,7.550552,5.81755,-0.07513637,-0.027030766,0.0042760535,0.3649806,-0.24745028,-0.6485807,2.2687502,-30.45,-29.081251
1763129275337,-1.5972091,7.550552,5.81755,-0.07513637,-0.027030766,0.0042760535,0.36677572,-0.2441778,-0.64330316,2.2687502,-30.45,-29.081251
1763129275338,-1.5972091,7.550552,5.81755,-0.07513637,-0.027030766,0.0042760535,0.36677572,-0.2441778,-0.64330316,3.61875,-29.343752,-28.987501
1763129275348,-1.5972091,7.550552,5.81755,-0.08536835,-0.022143848,-1.527162E-4,0.36677572,-0.2441778,-0.64330316,3.61875,-29.343752,-28.987501
1763129275349,-1.6031911,7.542177,5.910272,-0.08536835,-0.022143848,-1.527162E-4,0.36677572,-0.2441778,-0.64330316,3.61875,-29.343752,-28.987501
1763129275357,-1.6031911,7.542177,5.910272,-0.08536835,-0.022143848,-1.527162E-4,0.36819124,-0.24090661,-0.6384084,3.61875,-29.343752,-28.987501
1763129275358,-1.6031911,7.542177,5.910272,-0.08536835,-0.022143848,-1.527162E-4,0.36819124,-0.24090661,-0.6384084,2.625,-28.7625,-28.968752
1763129275369,-1.6031911,7.542177,5.910272,-0.075594515,-0.035124727,0.00962112,0.36819124,-0.24090661,-0.6384084,2.625,-28.7625,-28.968752
1763129275370,-1.6396817,7.5290165,5.9497533,-0.075594515,-0.035124727,0.00962112,0.36819124,-0.24090661,-0.6384084,2.625,-28.7625,-28.968752
1763129275378,-1.6396817,7.5290165,5.9497533,-0.075594515,-0.035124727,0.00962112,0.3690213,-0.23842478,-0.63463604,2.625,-28.7625,-28.968752
1763129275379,-1.6396817,7.5290165,5.9497533,-0.075594515,-0.035124727,0.00962112,0.3690213,-0.23842478,-0.63463604,2.60625,-28.7625,-27.91875
1763129275389,-1.6396817,7.5290165,5.9497533,-0.053145237,-0.041844238,0.015424335,0.3690213,-0.23842478,-0.63463604,2.60625,-28.7625,-27.91875
1763129275390,-1.5906289,7.5529447,5.965905,-0.053145237,-0.041844238,0.015424335,0.3690213,-0.23842478,-0.63463604,2.60625,-28.7625,-27.91875
1763129275398,-1.5906289,7.5529447,5.965905,-0.053145237,-0.041844238,0.015424335,0.36969906,-0.23644488,-0.6314323,2.60625,-28.7625,-27.91875
1763129275399,-1.5906289,7.5529447,5.965905,-0.053145237,-0.041844238,0.015424335,0.36969906,-0.23644488,-0.6314323,1.4625001,-29.5125,-27.768751
1763129275411,-1.5906289,7.5529447,5.965905,-0.048716467,-0.04092794,0.013286309,0.36969906,-0.23644488,-0.6314323,1.4625001,-29.5125,-27.768751
1763129275412,-1.5870396,7.5230346,5.925825,-0.048716467,-0.04092794,0.013286309,0.36969906,-0.23644488,-0.6314323,1.4625001,-29.5125,-27.768751
1763129275417,-1.5870396,7.5230346,5.925825,-0.048716467,-0.04092794,0.013286309,0.37081075,-0.23385532,-0.6269837,1.4625001,-29.5125,-27.768751
1763129275421,-1.5870396,7.5230346,5.925825,-0.048716467,-0.04092794,0.013286309,0.37081075,-0.23385532,-0.6269837,1.35,-29.025002,-25.650002
1763129275431,-1.5870396,7.5230346,5.925825,-0.06062833,-0.03970621,0.00763581,0.37081075,-0.23385532,-0.6269837,1.35,-29.025002,-25.650002
1763129275432,-1.5936198,7.5182486,5.8636117,-0.06062833,-0.03970621,0.00763581,0.37081075,-0.23385532,-0.6269837,1.35,-29.025002,-25.650002
1763129275437,-1.5936198,7.5182486,5.8636117,-0.06062833,-0.03970621,0.00763581,0.37152347,-0.2317423,-0.6235616,1.35,-29.025002,-25.650002
1763129275438,-1.5936198,7.5182486,5.8636117,-0.06062833,-0.03970621,0.00763581,0.37152347,-0.2317423,-0.6235616,2.4,-28.968752,-28.087502
1763129275453,-1.5936198,7.5182486,5.8636117,-0.08613193,-0.055283263,0.0108428495,0.37152347,-0.2317423,-0.6235616,2.4,-28.968752,-28.087502
1763129275454,-1.6336997,7.479964,5.811568,-0.08613193,-0.055283263,0.0108428495,0.37152347,-0.2317423,-0.6235616,2.4,-28.968752,-28.087502
1763129275458,-1.6336997,7.479964,5.811568,-0.08613193,-0.055283263,0.0108428495,0.37195688,-0.22974302,-0.62041646,2.4,-28.968752,-28.087502
1763129275459,-1.6336997,7.479964,5.811568,-0.08613193,-0.055283263,0.0108428495,0.37195688,-0.22974302,-0.62041646,2.15625,-29.831251,-28.3875
1763129275473,-1.6336997,7.479964,5.811568,-0.11759147,-0.08155045,0.015424335,0.37195688,-0.22974302,-0.62041646,2.15625,-29.831251,-28.3875
1763129275475,-1.5613167,7.5409803,6.0023956,-0.11759147,-0.08155045,0.015424335,0.37195688,-0.22974302,-0.62041646,2.15625,-29.831251,-28.3875
1763129275478,-1.5613167,7.5409803,6.0023956,-0.11759147,-0.08155045,0.015424335,0.3724059,-0.22717732,-0.6164835,2.15625,-29.831251,-28.3875
1763129275479,-1.5613167,7.5409803,6.0023956,-0.11759147,-0.08155045,0.015424335,0.3724059,-0.22717732,-0.6164835,4.4812503,-28.48125,-27.6
1763129275496,-1.5613167,7.5409803,6.0023956,-0.1310305,-0.054672398,0.0042760535,0.3724059,-0.22717732,-0.6164835,4.4812503,-28.48125,-27.6
1763129275497,-1.5296118,7.4847493,6.0981083,-0.1310305,-0.054672398,0.0042760535,0.3724059,-0.22717732,-0.6164835,4.4812503,-28.48125,-27.6
1763129275499,-1.5296118,7.4847493,6.0981083,-0.1310305,-0.054672398,0.0042760535,0.37233818,-0.22500655,-0.6137294,4.4812503,-28.48125,-27.6
1763129275501,-1.5296118,7.4847493,6.0981083,-0.1310305,-0.054672398,0.0042760535,0.37233818,-0.22500655,-0.6137294,1.725,-28.800001,-28.0125
1763129275516,-1.5296118,7.4847493,6.0981083,-0.12660173,-0.042455103,-0.0074830935,0.37233818,-0.22500655,-0.6137294,1.725,-28.800001,-28.0125
1763129275517,-1.6576279,7.409375,6.0837517,-0.12660173,-0.042455103,-0.0074830935,0.37233818,-0.22500655,-0.6137294,1.725,-28.800001,-28.0125
1763129275520,-1.6576279,7.409375,6.0837517,-0.12660173,-0.042455103,-0.0074830935,0.37268513,-0.22198348,-0.6097532,1.725,-28.800001,-28.0125
1763129275521,-1.6576279,7.409375,6.0837517,-0.12660173,-0.042455103,-0.0074830935,0.37268513,-0.22198348,-0.6097532,3.4875002,-27.768751,-29.437502
1763129275536,-1.6576279,7.409375,6.0837517,-0.10644319,-0.054825112,0.018173227,0.37268513,-0.22198348,-0.6097532,3.4875002,-27.768751,-29.437502
1763129275538,-1.6366907,7.4099736,6.0287166,-0.10644319,-0.054825112,0.018173227,0.37268513,-0.22198348,-0.6097532,3.4875002,-27.768751,-29.437502
1763129275539,-1.6366907,7.4099736,6.0287166,-0.10644319,-0.054825112,0.018173227,0.37236175,-0.22039892,-0.60798913,3.4875002,-27.768751,-29.437502
1763129275540,-1.6366907,7.4099736,6.0287166,-0.10644319,-0.054825112,0.018173227,0.37236175,-0.22039892,-0.60798913,1.9687501,-28.593752,-28.9125
1763129275558,-1.6366907,7.4099736,6.0287166,-0.09483676,-0.08093958,0.028710645,0.37236175,-0.22039892,-0.60798913,1.9687501,-28.593752,-28.9125
1763129275560,-1.6366907,7.4099736,6.0287166,-0.09483676,-0.08093958,0.028710645,0.37236175,-0.22039892,-0.60798913,2.79375,-28.237501,-29.212502
1763129275560,-1.6366907,7.4099736,6.0287166,-0.09483676,-0.08093958,0.028710645,0.37248048,-0.2183554,-0.6046965,2.79375,-28.237501,-29.212502
1763129275563,-1.5517455,7.3860455,6.0364933,-0.09483676,-0.08093958,0.028710645,0.37248048,-0.2183554,-0.6046965,2.79375,-28.237501,-29.212502
1763129275579,-1.5517455,7.3860455,6.0364933,-0.09483676,-0.08093958,0.028710645,0.37261674,-0.21628779,-0.60106516,2.79375,-28.237501,-29.212502
1763129275579,-1.5188441,7.3986077,6.0693946,-0.09483676,-0.08093958,0.028710645,0.37261674,-0.21628779,-0.60106516,2.79375,-28.237501,-29.212502
1763129275581,-1.5188441,7.3986077,6.0693946,-0.09483676,-0.08093958,0.028710645,0.37261674,-0.21628779,-0.60106516,1.66875,-29.94375,-28.800001
1763129275582,-1.5188441,7.3986077,6.0693946,-0.091018856,-0.08460477,0.028405212,0.37261674,-0.21628779,-0.60106516,1.66875,-29.94375,-28.800001
1763129275597,-1.5188441,7.3986077,6.0693946,-0.091018856,-0.08460477,0.028405212,0.37261674,-0.21628779,-0.60106516,2.2125,-28.5375,-29.156252
1763129275600,-1.5188441,7.3986077,6.0693946,-0.10415245,-0.06627883,0.017867794,0.37261674,-0.21628779,-0.60106516,2.2125,-28.5375,-29.156252
1763129275601,-1.4548361,7.4213395,6.170491,-0.10415245,-0.06627883,0.017867794,0.37261674,-0.21628779,-0.60106516,2.2125,-28.5375,-29.156252
1763129275602,-1.4548361,7.4213395,6.170491,-0.10415245,-0.06627883,0.017867794,0.3727035,-0.21411505,-0.59762067,2.2125,-28.5375,-29.156252
1763129275617,-1.4548361,7.4213395,6.170491,-0.10415245,-0.06627883,0.017867794,0.3727035,-0.21411505,-0.59762067,4.40625,-26.268751,-30.018751
1763129275621,-1.4548361,7.4213395,6.170491,-0.10415245,-0.06627883,0.017867794,0.3721934,-0.21287975,-0.5961543,4.40625,-26.268751,-30.018751
1763129275622,-1.4548361,7.4213395,6.170491,-0.10613775,-0.038789913,0.00962112,0.3721934,-0.21287975,-0.5961543,4.40625,-26.268751,-30.018751
1763129275623,-1.4967105,7.399804,6.2727847,-0.10613775,-0.038789913,0.00962112,0.3721934,-0.21287975,-0.5961543,4.40625,-26.268751,-30.018751
1763129275638,-1.4967105,7.399804,6.2727847,-0.10613775,-0.038789913,0.00962112,0.3721934,-0.21287975,-0.5961543,1.8000001,-28.987501,-31.44375
1763129275641,-1.4967105,7.399804,6.2727847,-0.06429352,-0.027947064,0.012370012,0.3721934,-0.21287975,-0.5961543,1.8000001,-28.987501,-31.44375
1763129275642,-1.4967105,7.399804,6.2727847,-0.06429352,-0.027947064,0.012370012,0.37186164,-0.21192336,-0.59496754,1.8000001,-28.987501,-31.44375
1763129275643,-1.5373886,7.41117,6.3009005,-0.06429352,-0.027947064,0.012370012,0.37186164,-0.21192336,-0.59496754,1.8000001,-28.987501,-31.44375
1763129275659,-1.5373886,7.41117,6.3009005,-0.06429352,-0.027947064,0.012370012,0.37186164,-0.21192336,-0.59496754,2.4562502,-27.675001,-29.00625
1763129275663,-1.5373886,7.41117,6.3009005,-0.06429352,-0.027947064,0.012370012,0.37203074,-0.21106991,-0.5933876,2.4562502,-27.675001,-29.00625
1763129275664,-1.5074782,7.390831,6.235696,-0.06429352,-0.027947064,0.012370012,0.37203074,-0.21106991,-0.5933876,2.4562502,-27.675001,-29.00625
1763129275666,-1.5074782,7.390831,6.235696,-0.010079269,-0.03405571,0.006261364,0.37203074,-0.21106991,-0.5933876,2.4562502,-27.675001,-29.00625
1763129275678,-1.5074782,7.390831,6.235696,-0.010079269,-0.03405571,0.006261364,0.37203074,-0.21106991,-0.5933876,3.525,-27.13125,-30.206251
1763129275683,-1.5074782,7.390831,6.235696,-7.6358096E-4,-0.037262753,0.0013744457,0.37203074,-0.21106991,-0.5933876,3.525,-27.13125,-30.206251
1763129275683,-1.5074782,7.390831,6.235696,-7.6358096E-4,-0.037262753,0.0013744457,0.37238744,-0.21016514,-0.5914866,3.525,-27.13125,-30.206251
1763129275685,-1.4231312,7.4380894,6.0891356,-7.6358096E-4,-0.037262753,0.0013744457,0.37238744,-0.21016514,-0.5914866,3.525,-27.13125,-30.206251
1763129275697,-1.4231312,7.4380894,6.0891356,-7.6358096E-4,-0.037262753,0.0013744457,0.37238744,-0.21016514,-0.5914866,2.8125,-28.406252,-28.706251
1763129275704,-1.4231312,7.4380894,6.0891356,0.0058032153,-0.09392046,-0.022601997,0.37238744,-0.21016514,-0.5914866,2.8125,-28.406252,-28.706251
1763129275709,-1.4231312,7.4380894,6.0891356,0.0058032153,-0.09392046,-0.022601997,0.37279093,-0.2095096,-0.5892591,2.8125,-28.406252,-28.706251
1763129275710,-1.3830515,7.521838,5.9024954,0.0058032153,-0.09392046,-0.022601997,0.37279093,-0.2095096,-0.5892591,2.8125,-28.406252,-28.706251
1763129275720,-1.3830515,7.521838,5.9024954,0.0058032153,-0.09392046,-0.022601997,0.37279093,-0.2095096,-0.5892591,1.7812501,-28.968752,-29.625002
1763129275725,-1.3830515,7.521838,5.9024954,0.030237807,-0.23182319,-0.055588696,0.37279093,-0.2095096,-0.5892591,1.7812501,-28.968752,-29.625002
1763129275726,-1.3507484,7.539186,5.686543,0.030237807,-0.23182319,-0.055588696,0.37279093,-0.2095096,-0.5892591,1.7812501,-28.968752,-29.625002
1763129275739,-1.3507484,7.539186,5.686543,0.030237807,-0.23182319,-0.055588696,0.37279093,-0.2095096,-0.5892591,0.65625,-30.018751,-28.9125
1763129275739,-1.3507484,7.539186,5.686543,0.030237807,-0.23182319,-0.055588696,0.3732196,-0.20935927,-0.5863528,0.65625,-30.018751,-28.9125
1763129275746,-1.3507484,7.539186,5.686543,0.0025961753,-0.38224864,-0.083230324,0.3732196,-0.20935927,-0.5863528,0.65625,-30.018751,-28.9125
1763129275747,-1.2616158,7.457232,5.3419766,0.0025961753,-0.38224864,-0.083230324,0.3732196,-0.20935927,-0.5863528,0.65625,-30.018751,-28.9125
1763129275757,-1.2616158,7.457232,5.3419766,0.0025961753,-0.38224864,-0.083230324,0.3731927,-0.20952262,-0.5830326,0.65625,-30.018751,-28.9125
1763129275758,-1.2616158,7.457232,5.3419766,0.0025961753,-0.38224864,-0.083230324,0.3731927,-0.20952262,-0.5830326,1.48125,-29.5125,-29.118752
1763129275766,-1.2616158,7.457232,5.3419766,-0.10522146,-0.5401572,-0.09453133,0.3731927,-0.20952262,-0.5830326,1.48125,-29.5125,-29.118752
1763129275767,-1.3908281,7.3603225,5.2103715,-0.10522146,-0.5401572,-0.09453133,0.3731927,-0.20952262,-0.5830326,1.48125,-29.5125,-29.118752
1763129275778,-1.3908281,7.3603225,5.2103715,-0.10522146,-0.5401572,-0.09453133,0.3721658,-0.20962155,-0.57915276,1.48125,-29.5125,-29.118752
1763129275778,-1.3908281,7.3603225,5.2103715,-0.10522146,-0.5401572,-0.09453133,0.3721658,-0.20962155,-0.57915276,0.99375004,-30.431252,-30.075
1763129275788,-1.3908281,7.3603225,5.2103715,-0.2828304,-0.57971066,-0.03924806,0.3721658,-0.20962155,-0.57915276,0.99375004,-30.431252,-30.075
1763129275789,-1.3752748,7.185048,5.7655063,-0.2828304,-0.57971066,-0.03924806,0.3721658,-0.20962155,-0.57915276,0.99375004,-30.431252,-30.075
1763129275797,-1.3752748,7.185048,5.7655063,-0.2828304,-0.57971066,-0.03924806,0.369999,-0.20864287,-0.57477266,0.99375004,-30.431252,-30.075
1763129275798,-1.3752748,7.185048,5.7655063,-0.2828304,-0.57971066,-0.03924806,0.369999,-0.20864287,-0.57477266,0.975,-28.031252,-28.9125
1763129275811,-1.3752748,7.185048,5.7655063,-0.3866774,-0.5039635,0.020616686,0.369999,-0.20864287,-0.57477266,0.975,-28.031252,-28.9125
1763129275812,-1.1569297,7.1336026,6.3254266,-0.3866774,-0.5039635,0.020616686,0.369999,-0.20864287,-0.57477266,0.975,-28.031252,-28.9125
1763129275820,-1.1569297,7.1336026,6.3254266,-0.3866774,-0.5039635,0.020616686,0.365618,-0.20841941,-0.5740929,0.975,-28.031252,-28.9125
1763129275821,-1.1569297,7.1336026,6.3254266,-0.3866774,-0.5039635,0.020616686,0.365618,-0.20841941,-0.5740929,-0.13125001,-28.931252,-30.35625
1763129275830,-1.1569297,7.1336026,6.3254266,-0.31902415,-0.479987,0.004734202,0.365618,-0.20841941,-0.5740929,-0.13125001,-28.931252,-30.35625
1763129275831,-1.0085747,7.3106713,6.6053867,-0.31902415,-0.479987,0.004734202,0.365618,-0.20841941,-0.5740929,-0.13125001,-28.931252,-30.35625
1763129275837,-1.0085747,7.3106713,6.6053867,-0.31902415,-0.479987,0.004734202,0.365618,-0.20841941,-0.5740929,1.44375,-27.618752,-30.393751
1763129275838,-1.0085747,7.3106713,6.6053867,-0.31902415,-0.479987,0.004734202,0.36083183,-0.20897287,-0.5746817,1.44375,-27.618752,-30.393751
1763129275851,-1.0085747,7.3106713,6.6053867,-0.15210533,-0.52748173,-0.0481056,0.36083183,-0.20897287,-0.5746817,1.44375,-27.618752,-30.393751
1763129275852,-1.0049855,7.295118,6.6125655,-0.15210533,-0.52748173,-0.0481056,0.36083183,-0.20897287,-0.5746817,1.44375,-27.618752,-30.393751
1763129275858,-1.0049855,7.295118,6.6125655,-0.15210533,-0.52748173,-0.0481056,0.3566315,-0.21131414,-0.57641286,1.44375,-27.618752,-30.393751
1763129275859,-1.0049855,7.295118,6.6125655,-0.15210533,-0.52748173,-0.0481056,0.3566315,-0.21131414,-0.57641286,-0.8625,-28.612501,-28.3875
1763129275872,-1.0049855,7.295118,6.6125655,-0.0820086,-0.535423,-0.07880156,0.3566315,-0.21131414,-0.57641286,-0.8625,-28.612501,-28.3875
1763129275873,-1.134198,7.143772,6.5054865,-0.0820086,-0.535423,-0.07880156,0.3566315,-0.21131414,-0.57641286,-0.8625,-28.612501,-28.3875
1763129275877,-1.134198,7.143772,6.5054865,-0.0820086,-0.535423,-0.07880156,0.3531419,-0.21379945,-0.5779244,-0.8625,-28.612501,-28.3875
1763129275878,-1.134198,7.143772,6.5054865,-0.0820086,-0.535423,-0.07880156,0.3531419,-0.21379945,-0.5779244,-1.3125,-28.875002,-29.04375
1763129275893,-1.134198,7.143772,6.5054865,-0.13637556,-0.49541134,-0.06520981,0.3531419,-0.21379945,-0.5779244,-1.3125,-28.875002,-29.04375
1763129275894,-1.1832508,7.1192455,6.4402823,-0.13637556,-0.49541134,-0.06520981,0.3531419,-0.21379945,-0.5779244,-1.3125,-28.875002,-29.04375
1763129275898,-1.1832508,7.1192455,6.4402823,-0.13637556,-0.49541134,-0.06520981,0.3492946,-0.21609864,-0.580644,-1.3125,-28.875002,-29.04375
1763129275900,-1.1832508,7.1192455,6.4402823,-0.13637556,-0.49541134,-0.06520981,0.3492946,-0.21609864,-0.580644,-1.5375,-28.29375,-28.968752
1763129275914,-1.1832508,7.1192455,6.4402823,-0.20784675,-0.4819723,-0.03924806,0.3492946,-0.21609864,-0.580644,-1.5375,-28.29375,-28.968752
1763129275915,-1.049851,7.12762,6.602994,-0.20784675,-0.4819723,-0.03924806,0.3492946,-0.21609864,-0.580644,-1.5375,-28.29375,-28.968752
1763129275919,-1.049851,7.12762,6.602994,-0.20784675,-0.4819723,-0.03924806,0.3492946,-0.21609864,-0.580644,-0.80625004,-27.31875,-28.556252
1763129275923,-1.049851,7.12762,6.602994,-0.20784675,-0.4819723,-0.03924806,0.34548843,-0.21734934,-0.5821671,-0.80625004,-27.31875,-28.556252
1763129275935,-1.049851,7.12762,6.602994,-0.22632541,-0.44440413,-0.033444848,0.34548843,-0.21734934,-0.5821671,-0.80625004,-27.31875,-28.556252
1763129275935,-0.83389866,7.170093,6.931409,-0.22632541,-0.44440413,-0.033444848,0.34548843,-0.21734934,-0.5821671,-0.80625004,-27.31875,-28.556252
1763129275937,-0.83389866,7.170093,6.931409,-0.22632541,-0.44440413,-0.033444848,0.34194115,-0.21774556,-0.58238035,-0.80625004,-27.31875,-28.556252
1763129275938,-0.83389866,7.170093,6.931409,-0.22632541,-0.44440413,-0.033444848,0.34194115,-0.21774556,-0.58238035,-1.3875,-26.812502,-29.475
1763129275955,-0.83389866,7.170093,6.931409,-0.16157374,-0.39370236,-0.06536253,0.34194115,-0.21774556,-0.58238035,-1.3875,-26.812502,-29.475
1763129275956,-0.76570326,7.181459,7.05105,-0.16157374,-0.39370236,-0.06536253,0.34194115,-0.21774556,-0.58238035,-1.3875,-26.812502,-29.475
1763129275957,-0.76570326,7.181459,7.05105,-0.16157374,-0.39370236,-0.06536253,0.33827615,-0.2190398,-0.58431983,-1.3875,-26.812502,-29.475
1763129275958,-0.76570326,7.181459,7.05105,-0.16157374,-0.39370236,-0.06536253,0.33827615,-0.2190398,-0.58431983,-4.1062503,-29.19375,-27.225
1763129275979,-0.76570326,7.181459,7.05105,-0.16157374,-0.39370236,-0.06536253,0.33521265,-0.2204961,-0.58675385,-4.1062503,-29.19375,-27.225
1763129275979,-0.76570326,7.181459,7.05105,-0.0980438,-0.332005,-0.092546016,0.33521265,-0.2204961,-0.58675385,-4.1062503,-29.19375,-27.225
1763129275981,-0.76570326,7.181459,7.05105,-0.0980438,-0.332005,-0.092546016,0.33521265,-0.2204961,-0.58675385,-2.5875,-29.00625,-28.181252
1763129275982,-0.80997044,7.1162543,7.088737,-0.0980438,-0.332005,-0.092546016,0.33521265,-0.2204961,-0.58675385,-2.5875,-29.00625,-28.181252
1763129275998,-0.80997044,7.1162543,7.088737,-0.050243627,-0.26816964,-0.09498947,0.33521265,-0.2204961,-0.58675385,-2.5875,-29.00625,-28.181252
1763129275999,-0.80997044,7.1162543,7.088737,-0.050243627,-0.26816964,-0.09498947,0.3330106,-0.22147554,-0.58859575,-2.5875,-29.00625,-28.181252
1763129276000,-0.80997044,7.1162543,7.088737,-0.050243627,-0.26816964,-0.09498947,0.3330106,-0.22147554,-0.58859575,-2.5875,-28.85625,-29.1375
1763129276001,-0.78664047,7.0002027,6.888338,-0.050243627,-0.26816964,-0.09498947,0.3330106,-0.22147554,-0.58859575,-2.5875,-28.85625,-29.1375
1763129276018,-0.78664047,7.0002027,6.888338,-0.050243627,-0.26816964,-0.09498947,0.3330106,-0.22147554,-0.58859575,-2.71875,-28.237501,-27.975
1763129276019,-0.78664047,7.0002027,6.888338,-0.04291325,-0.23976442,-0.09498947,0.3330106,-0.22147554,-0.58859575,-2.71875,-28.237501,-27.975
1763129276020,-0.78664047,7.0002027,6.888338,-0.04291325,-0.23976442,-0.09498947,0.33100617,-0.22259249,-0.59077156,-2.71875,-28.237501,-27.975
1763129276022,-0.86979103,6.9738817,6.4737816,-0.04291325,-0.23976442,-0.09498947,0.33100617,-0.22259249,-0.59077156,-2.71875,-28.237501,-27.975
1763129276037,-0.86979103,6.9738817,6.4737816,-0.04291325,-0.23976442,-0.09498947,0.33100617,-0.22259249,-0.59077156,-3.16875,-29.306252,-27.975
1763129276040,-0.86979103,6.9738817,6.4737816,-0.09315688,-0.27091852,-0.054672398,0.33100617,-0.22259249,-0.59077156,-3.16875,-29.306252,-27.975
1763129276042,-0.9846465,7.0289164,6.2051873,-0.09315688,-0.27091852,-0.054672398,0.33100617,-0.22259249,-0.59077156,-3.16875,-29.306252,-27.975
1763129276058,-0.9846465,7.0289164,6.2051873,-0.09315688,-0.27091852,-0.054672398,0.33100617,-0.22259249,-0.59077156,-5.1937504,-30.093752,-28.968752
1763129276061,-0.9846465,7.0289164,6.2051873,-0.15989386,-0.40210176,-0.0042760535,0.33100617,-0.22259249,-0.59077156,-5.1937504,-30.093752,-28.968752
1763129276062,-0.9846465,7.0289164,6.2051873,-0.15989386,-0.40210176,-0.0042760535,0.32925376,-0.22313344,-0.5909143,-5.1937504,-30.093752,-28.968752
1763129276063,-0.9846465,7.0289164,6.2051873,-0.15989386,-0.40210176,-0.0042760535,0.32598445,-0.22466165,-0.59181225,-5.1937504,-30.093752,-28.968752
1763129276065,-0.6999006,7.149754,6.5677,-0.15989386,-0.40210176,-0.0042760535,0.32598445,-0.22466165,-0.59181225,-5.1937504,-30.093752,-28.968752
1763129276078,-0.6999006,7.149754,6.5677,-0.15989386,-0.40210176,-0.0042760535,0.32598445,-0.22466165,-0.59181225,-4.2375,-29.062502,-28.2
1763129276082,-0.6999006,7.149754,6.5677,-0.2112065,-0.3488038,-0.064140804,0.32598445,-0.22466165,-0.59181225,-4.2375,-29.062502,-28.2
1763129276082,-0.6999006,7.149754,6.5677,-0.2112065,-0.3488038,-0.064140804,0.32283735,-0.22517212,-0.5927719,-4.2375,-29.062502,-28.2
1763129276084,-0.4031906,7.159325,6.9373913,-0.2112065,-0.3488038,-0.064140804,0.32283735,-0.22517212,-0.5927719,-4.2375,-29.062502,-28.2
1763129276098,-0.4031906,7.159325,6.9373913,-0.2112065,-0.3488038,-0.064140804,0.32283735,-0.22517212,-0.5927719,-2.4375,-26.868752,-27.0375
1763129276103,-0.4031906,7.159325,6.9373913,-0.27107126,-0.24373505,-0.1631009,0.32283735,-0.22517212,-0.5927719,-2.4375,-26.868752,-27.0375
1763129276104,-0.4031906,7.159325,6.9373913,-0.27107126,-0.24373505,-0.1631009,0.31997997,-0.22433187,-0.59444577,-2.4375,-26.868752,-27.0375
1763129276106,-0.42711884,7.090532,6.8662047,-0.27107126,-0.24373505,-0.1631009,0.31997997,-0.22433187,-0.59444577,-2.4375,-26.868752,-27.0375
1763129276117,-0.42711884,7.090532,6.8662047,-0.27107126,-0.24373505,-0.1631009,0.31997997,-0.22433187,-0.59444577,-4.2000003,-28.425001,-28.968752
1763129276123,-0.42711884,7.090532,6.8662047,-0.29764387,-0.19700389,-0.17195843,0.31997997,-0.22433187,-0.59444577,-4.2000003,-28.425001,-28.968752
1763129276124,-0.42711884,7.090532,6.8662047,-0.29764387,-0.19700389,-0.17195843,0.316978,-0.22334194,-0.5969264,-4.2000003,-28.425001,-28.968752
1763129276125,-0.6376872,6.89432,6.9361944,-0.29764387,-0.19700389,-0.17195843,0.316978,-0.22334194,-0.5969264,-4.2000003,-28.425001,-28.968752
1763129276138,-0.6376872,6.89432,6.9361944,-0.29764387,-0.19700389,-0.17195843,0.316978,-0.22334194,-0.5969264,-5.1937504,-27.843752,-28.35
1763129276145,-0.6376872,6.89432,6.9361944,-0.25030184,-0.20005822,-0.11133011,0.316978,-0.22334194,-0.5969264,-5.1937504,-27.843752,-28.35
1763129276147,-0.68135625,6.70768,7.0289164,-0.25030184,-0.20005822,-0.11133011,0.316978,-0.22334194,-0.5969264,-5.1937504,-27.843752,-28.35
1763129276158,-0.68135625,6.70768,7.0289164,-0.25030184,-0.20005822,-0.11133011,0.316978,-0.22334194,-0.5969264,-3.9375002,-28.518751,-28.25625
1763129276159,-0.68135625,6.70768,7.0289164,-0.25030184,-0.20005822,-0.11133011,0.31410593,-0.22289702,-0.59907514,-3.9375002,-28.518751,-28.25625
1763129276166,-0.68135625,6.70768,7.0289164,-0.18280129,-0.17974696,-0.05665771,0.31410593,-0.22289702,-0.59907514,-3.9375002,-28.518751,-28.25625
1763129276167,-0.73519474,6.6598234,7.167102,-0.18280129,-0.17974696,-0.05665771,0.31410593,-0.22289702,-0.59907514,-3.9375002,-28.518751,-28.25625
1763129276177,-0.73519474,6.6598234,7.167102,-0.18280129,-0.17974696,-0.05665771,0.3116471,-0.22295374,-0.60079664,-3.9375002,-28.518751,-28.25625
1763129276178,-0.73519474,6.6598234,7.167102,-0.18280129,-0.17974696,-0.05665771,0.3116471,-0.22295374,-0.60079664,-5.25,-28.181252,-29.19375
1763129276187,-0.73519474,6.6598234,7.167102,-0.1432478,-0.09346231,-0.022907428,0.3116471,-0.22295374,-0.60079664,-5.25,-28.181252,-29.19375
1763129276188,-0.54735816,6.768099,7.149754,-0.1432478,-0.09346231,-0.022907428,0.3116471,-0.22295374,-0.60079664,-5.25,-28.181252,-29.19375
1763129276197,-0.54735816,6.768099,7.149754,-0.1432478,-0.09346231,-0.022907428,0.30989447,-0.22276133,-0.60202664,-5.25,-28.181252,-29.19375
1763129276198,-0.54735816,6.768099,7.149754,-0.1432478,-0.09346231,-0.022907428,0.30989447,-0.22276133,-0.60202664,-4.8,-28.725,-28.9125
1763129276208,-0.54735816,6.768099,7.149754,-0.13500112,-0.04367683,-0.01847866,0.30989447,-0.22276133,-0.60202664,-4.8,-28.725,-28.9125
1763129276209,-0.5024927,6.806982,6.9858456,-0.13500112,-0.04367683,-0.01847866,0.30989447,-0.22276133,-0.60202664,-4.8,-28.725,-28.9125
1763129276220,-0.5024927,6.806982,6.9858456,-0.13500112,-0.04367683,-0.01847866,0.30855533,-0.22224328,-0.6028476,-4.8,-28.725,-28.9125
1763129276221,-0.5024927,6.806982,6.9858456,-0.13500112,-0.04367683,-0.01847866,0.30855533,-0.22224328,-0.6028476,-4.875,-28.406252,-27.206251
1763129276229,-0.5024927,6.806982,6.9858456,-0.12293654,-0.06856957,-0.032375835,0.30855533,-0.22224328,-0.6028476,-4.875,-28.406252,-27.206251
1763129276231,-0.5138587,6.940382,6.923632,-0.12293654,-0.06856957,-0.032375835,0.30855533,-0.22224328,-0.6028476,-4.875,-28.406252,-27.206251
1763129276238,-0.5138587,6.940382,6.923632,-0.12293654,-0.06856957,-0.032375835,0.30726734,-0.2218831,-0.60361034,-4.875,-28.406252,-27.206251
1763129276239,-0.5138587,6.940382,6.923632,-0.12293654,-0.06856957,-0.032375835,0.30726734,-0.2218831,-0.60361034,-4.96875,-27.7875,-27.54375
1763129276249,-0.5138587,6.940382,6.923632,-0.11804962,-0.107359484,-0.06856957,0.30726734,-0.2218831,-0.60361034,-4.96875,-27.7875,-27.54375
1763129276250,-0.5455636,6.8721867,6.9248285,-0.11804962,-0.107359484,-0.06856957,0.30726734,-0.2218831,-0.60361034,-4.96875,-27.7875,-27.54375
1763129276259,-0.5455636,6.8721867,6.9248285,-0.11804962,-0.107359484,-0.06856957,0.30594277,-0.22166505,-0.60455877,-4.96875,-27.7875,-27.54375
1763129276260,-0.5455636,6.8721867,6.9248285,-0.11804962,-0.107359484,-0.06856957,0.30594277,-0.22166505,-0.60455877,-4.0687504,-25.987501,-30.018751
1763129276271,-0.5455636,6.8721867,6.9248285,-0.12079851,-0.115911596,-0.06887501,0.30594277,-0.22166505,-0.60455877,-4.0687504,-25.987501,-30.018751
1763129276272,-0.58265233,6.6915283,7.007381,-0.12079851,-0.115911596,-0.06887501,0.30594277,-0.22166505,-0.60455877,-4.0687504,-25.987501,-30.018751
1763129276278,-0.58265233,6.6915283,7.007381,-0.12079851,-0.115911596,-0.06887501,0.30453447,-0.22149591,-0.60558057,-4.0687504,-25.987501,-30.018751
1763129276279,-0.58265233,6.6915283,7.007381,-0.12079851,-0.115911596,-0.06887501,0.30453447,-0.22149591,-0.60558057,-3.6562502,-26.362501,-27.843752
1763129276292,-0.58265233,6.6915283,7.007381,-0.13820815,-0.06383537,-0.05146536,0.30453447,-0.22149591,-0.60558057,-3.6562502,-26.362501,-27.843752
1763129276293,-0.56350976,6.6203423,7.0025954,-0.13820815,-0.06383537,-0.05146536,0.30453447,-0.22149591,-0.60558057,-3.6562502,-26.362501,-27.843752
1763129276297,-0.56350976,6.6203423,7.0025954,-0.13820815,-0.06383537,-0.05146536,0.30453447,-0.22149591,-0.60558057,-3.05625,-26.062502,-29.1
1763129276313,-0.56350976,6.6203423,7.0025954,-0.16142102,-0.049480047,-0.033902995,0.30453447,-0.22149591,-0.60558057,-3.05625,-26.062502,-29.1
1763129276314,-0.57427746,6.6825557,6.9296145,-0.16142102,-0.049480047,-0.033902995,0.30453447,-0.22149591,-0.60558057,-3.05625,-26.062502,-29.1
1763129276319,-0.57427746,6.6825557,6.9296145,-0.16142102,-0.049480047,-0.033902995,0.30298308,-0.22113432,-0.6071725,-3.05625,-26.062502,-29.1
1763129276320,-0.57427746,6.6825557,6.9296145,-0.16142102,-0.049480047,-0.033902995,0.30298308,-0.22113432,-0.6071725,-3.3000002,-26.925001,-28.500002
1763129276321,-0.57427746,6.6825557,6.9296145,-0.16142102,-0.049480047,-0.033902995,0.30137977,-0.22044244,-0.6083302,-3.3000002,-26.925001,-28.500002
1763129276334,-0.56590253,6.68435,7.038488,-0.16142102,-0.049480047,-0.033902995,0.30137977,-0.22044244,-0.6083302,-3.3000002,-26.925001,-28.500002
1763129276335,-0.56590253,6.68435,7.038488,-0.16569707,-0.06750056,-0.01924224,0.30137977,-0.22044244,-0.6083302,-3.3000002,-26.925001,-28.500002
1763129276339,-0.56590253,6.68435,7.038488,-0.16569707,-0.06750056,-0.01924224,0.30001083,-0.21968672,-0.608638,-3.3000002,-26.925001,-28.500002
1763129276340,-0.56590253,6.68435,7.038488,-0.16569707,-0.06750056,-0.01924224,0.30001083,-0.21968672,-0.608638,-4.36875,-27.6375,-26.643751
1763129276355,-0.56590253,6.68435,7.038488,-0.1357647,-0.06658426,-0.016340632,0.30001083,-0.21968672,-0.608638,-4.36875,-27.6375,-26.643751
1763129276356,-0.47976094,6.672386,7.100103,-0.1357647,-0.06658426,-0.016340632,0.30001083,-0.21968672,-0.608638,-4.36875,-27.6375,-26.643751
1763129276358,-0.47976094,6.672386,7.100103,-0.1357647,-0.06658426,-0.016340632,0.2985531,-0.21941626,-0.60964483,-4.36875,-27.6375,-26.643751
1763129276359,-0.47976094,6.672386,7.100103,-0.1357647,-0.06658426,-0.016340632,0.2985531,-0.21941626,-0.60964483,-3.9375002,-26.925001,-29.2875
1763129276376,-0.47976094,6.672386,7.100103,-0.09422589,-0.06902772,-0.042455103,0.2985531,-0.21941626,-0.60964483,-3.9375002,-26.925001,-29.2875
1763129276377,-0.36191443,6.726823,7.0576305,-0.09422589,-0.06902772,-0.042455103,0.2985531,-0.21941626,-0.60964483,-3.9375002,-26.925001,-29.2875
1763129276378,-0.36191443,6.726823,7.0576305,-0.09422589,-0.06902772,-0.042455103,0.29723105,-0.21953797,-0.6110163,-3.9375002,-26.925001,-29.2875
1763129276379,-0.36191443,6.726823,7.0576305,-0.09422589,-0.06902772,-0.042455103,0.29723105,-0.21953797,-0.6110163,-4.33125,-26.19375,-27.31875
1763129276398,-0.36191443,6.726823,7.0576305,-0.090560704,-0.046273008,-0.084452055,0.29723105,-0.21953797,-0.6110163,-4.33125,-26.19375,-27.31875
1763129276400,-0.36191443,6.726823,7.0576305,-0.090560704,-0.046273008,-0.084452055,0.29645744,-0.21922255,-0.6115829,-4.33125,-26.19375,-27.31875
1763129276401,-0.4319045,6.6442704,7.031309,-0.090560704,-0.046273008,-0.084452055,0.29645744,-0.21922255,-0.6115829,-4.33125,-26.19375,-27.31875
1763129276403,-0.4319045,6.6442704,7.031309,-0.090560704,-0.046273008,-0.084452055,0.29645744,-0.21922255,-0.6115829,-4.0687504,-26.1375,-28.781252
1763129276419,-0.4319045,6.6442704,7.031309,-0.090560704,-0.046273008,-0.084452055,0.29558477,-0.21829413,-0.612006,-4.0687504,-26.1375,-28.781252
1763129276420,-0.4319045,6.6442704,7.031309,-0.1357647,-0.028252495,-0.082466744,0.29558477,-0.21829413,-0.612006,-4.0687504,-26.1375,-28.781252
1763129276422,-0.4319045,6.6442704,7.031309,-0.1357647,-0.028252495,-0.082466744,0.29558477,-0.21829413,-0.612006,-4.89375,-26.493752,-29.531252
1763129276423,-0.54257256,6.605985,7.0002027,-0.1357647,-0.028252495,-0.082466744,0.29558477,-0.21829413,-0.612006,-4.89375,-26.493752,-29.531252
1763129276437,-0.54257256,6.605985,7.0002027,-0.1357647,-0.028252495,-0.082466744,0.29558477,-0.21829413,-0.612006,-3.6000001,-25.06875,-28.7625
1763129276439,-0.54257256,6.605985,7.0002027,-0.17577635,-0.023823727,-0.06398808,0.29558477,-0.21829413,-0.612006,-3.6000001,-25.06875,-28.7625
1763129276440,-0.56470615,6.6149583,7.1096745,-0.17577635,-0.023823727,-0.06398808,0.29558477,-0.21829413,-0.612006,-3.6000001,-25.06875,-28.7625
1763129276441,-0.56470615,6.6149583,7.1096745,-0.17577635,-0.023823727,-0.06398808,0.2945291,-0.21705164,-0.61247,-3.6000001,-25.06875,-28.7625
1763129276457,-0.56470615,6.6149583,7.1096745,-0.17577635,-0.023823727,-0.06398808,0.2945291,-0.21705164,-0.61247,-5.1375003,-27.35625,-28.9125
1763129276461,-0.56470615,6.6149583,7.1096745,-0.16264275,-0.032070402,-0.060475614,0.2945291,-0.21705164,-0.61247,-5.1375003,-27.35625,-28.9125
1763129276462,-0.56470615,6.6149583,7.1096745,-0.16264275,-0.032070402,-0.060475614,0.2933553,-0.21607563,-0.6133153,-5.1375003,-27.35625,-28.9125
1763129276463,-0.5491528,6.6185474,7.1659055,-0.16264275,-0.032070402,-0.060475614,0.2933553,-0.21607563,-0.6133153,-5.1375003,-27.35625,-28.9125
1763129276478,-0.5491528,6.6185474,7.1659055,-0.16264275,-0.032070402,-0.060475614,0.2933553,-0.21607563,-0.6133153,-4.6875,-27.73125,-29.587502
1763129276481,-0.5300102,6.5677,7.2807612,-0.16264275,-0.032070402,-0.060475614,0.2933553,-0.21607563,-0.6133153,-4.6875,-27.73125,-29.587502
1763129276482,-0.5300102,6.5677,7.2807612,-0.12110394,-0.059253883,-0.06658426,0.2933553,-0.21607563,-0.6133153,-4.6875,-27.73125,-29.587502
1763129276483,-0.5300102,6.5677,7.2807612,-0.12110394,-0.059253883,-0.06658426,0.2922046,-0.21567735,-0.6144754,-4.6875,-27.73125,-29.587502
1763129276499,-0.5300102,6.5677,7.2807612,-0.12110394,-0.059253883,-0.06658426,0.2922046,-0.21567735,-0.6144754,-5.175,-26.550001,-27.31875
1763129276502,-0.5300102,6.5677,7.2807612,-0.09346231,-0.03970621,-0.06368265,0.2922046,-0.21567735,-0.6144754,-5.175,-26.550001,-27.31875
1763129276504,-0.5300102,6.5677,7.2807612,-0.09346231,-0.03970621,-0.06368265,0.291095,-0.21543944,-0.615971,-5.175,-26.550001,-27.31875
1763129276505,-0.5665008,6.442675,7.2969127,-0.09346231,-0.03970621,-0.06368265,0.291095,-0.21543944,-0.615971,-5.175,-26.550001,-27.31875
1763129276517,-0.5665008,6.442675,7.2969127,-0.09346231,-0.03970621,-0.06368265,0.291095,-0.21543944,-0.615971,-5.9812503,-27.712502,-28.1625
1763129276523,-0.5665008,6.442675,7.2969127,-0.09346231,-0.03970621,-0.06368265,0.28978387,-0.2152797,-0.618228,-5.9812503,-27.712502,-28.1625
1763129276524,-0.5665008,6.442675,7.2969127,-0.09468404,-0.009926553,-0.04657844,0.28978387,-0.2152797,-0.618228,-5.9812503,-27.712502,-28.1625
1763129276525,-0.61854464,6.4474607,7.2915287,-0.09468404,-0.009926553,-0.04657844,0.28978387,-0.2152797,-0.618228,-5.9812503,-27.712502,-28.1625
1763129276538,-0.61854464,6.4474607,7.2915287,-0.09468404,-0.009926553,-0.04657844,0.28978387,-0.2152797,-0.618228,-5.5875,-27.768751,-28.181252
1763129276544,-0.61854464,6.4474607,7.2915287,-0.09468404,-0.009926553,-0.04657844,0.28841257,-0.21506284,-0.6205869,-5.5875,-27.768751,-28.181252
1763129276545,-0.61854464,6.4474607,7.2915287,-0.11026109,0.003970621,-0.02535089,0.28841257,-0.21506284,-0.6205869,-5.5875,-27.768751,-28.181252
1763129276547,-0.64247286,6.4827547,7.3986077,-0.11026109,0.003970621,-0.02535089,0.28841257,-0.21506284,-0.6205869,-5.5875,-27.768751,-28.181252
1763129276557,-0.64247286,6.4827547,7.3986077,-0.11026109,0.003970621,-0.02535089,0.28841257,-0.21506284,-0.6205869,-5.7937503,-27.337502,-28.218752
1763129276564,-0.64247286,6.4827547,7.3986077,-0.11026109,0.003970621,-0.02535089,0.2874822,-0.21461983,-0.6225599,-5.7937503,-27.337502,-28.218752
1763129276566,-0.5778667,6.411568,7.3286176,-0.11026109,0.003970621,-0.02535089,0.2874822,-0.21461983,-0.6225599,-5.7937503,-27.337502,-28.218752
1763129276567,-0.5778667,6.411568,7.3286176,-0.08811724,0.05070178,-0.009926553,0.2874822,-0.21461983,-0.6225599,-5.7937503,-27.337502,-28.218752
1763129276579,-0.5778667,6.411568,7.3286176,-0.08811724,0.05070178,-0.009926553,0.2874822,-0.21461983,-0.6225599,-5.25,-28.181252,-29.19375
1763129276586,-0.5778667,6.411568,7.3286176,-0.027030766,0.01970039,0.0027488915,0.2874822,-0.21461983,-0.6225599,-5.25,-28.181252,-29.19375
1763129276587,-0.6873383,6.3044896,7.0959153,-0.027030766,0.01970039,0.0027488915,0.2874822,-0.21461983,-0.6225599,-5.25,-28.181252,-29.19375
1763129276598,-0.6873383,6.3044896,7.0959153,-0.027030766,0.01970039,0.0027488915,0.2874822,-0.21461983,-0.6225599,-7.7250004,-28.7625,-29.00625
1763129276599,-0.6873383,6.3044896,7.0959153,-0.027030766,0.01970039,0.0027488915,0.2870976,-0.2143962,-0.62310207,-7.7250004,-28.7625,-29.00625
1763129276607,-0.6873383,6.3044896,7.0959153,0.07345649,-0.10033454,0.010079269,0.2870976,-0.2143962,-0.62310207,-7.7250004,-28.7625,-29.00625
1763129276608,-0.8961121,6.2775702,6.145965,0.07345649,-0.10033454,0.010079269,0.2870976,-0.2143962,-0.62310207,-7.7250004,-28.7625,-29.00625
1763129276619,-0.8961121,6.2775702,6.145965,0.07345649,-0.10033454,0.010079269,0.2869368,-0.2155346,-0.6235386,-7.7250004,-28.7625,-29.00625
1763129276619,-0.8961121,6.2775702,6.145965,0.07345649,-0.10033454,0.010079269,0.2869368,-0.2155346,-0.6235386,-4.4812503,-25.25625,-27.91875
1763129276628,-0.8961121,6.2775702,6.145965,0.04657844,-0.3593412,0.06017018,0.2869368,-0.2155346,-0.6235386,-4.4812503,-25.25625,-27.91875
1763129276629,-0.7579266,6.2530437,6.5437717,0.04657844,-0.3593412,0.06017018,0.2869368,-0.2155346,-0.6235386,-4.4812503,-25.25625,-27.91875
1763129276637,-0.7579266,6.2530437,6.5437717,0.04657844,-0.3593412,0.06017018,0.28699946,-0.21726485,-0.6205711,-4.4812503,-25.25625,-27.91875
1763129276639,-0.7579266,6.2530437,6.5437717,0.04657844,-0.3593412,0.06017018,0.28699946,-0.21726485,-0.6205711,-5.34375,-26.925001,-28.800001
1763129276648,-0.7579266,6.2530437,6.5437717,-0.08491021,-0.3265072,0.13545926,0.28699946,-0.21726485,-0.6205711,-5.34375,-26.925001,-28.800001
1763129276649,-0.19980069,6.366703,7.036095,-0.08491021,-0.3265072,0.13545926,0.28699946,-0.21726485,-0.6205711,-5.34375,-26.925001,-28.800001
1763129276659,-0.19980069,6.366703,7.036095,-0.08491021,-0.3265072,0.13545926,0.28479022,-0.21915653,-0.6202452,-5.34375,-26.925001,-28.800001
1763129276660,-0.19980069,6.366703,7.036095,-0.08491021,-0.3265072,0.13545926,0.28479022,-0.21915653,-0.6202452,-6.6000004,-27.056252,-28.968752
1763129276671,-0.19980069,6.366703,7.036095,-0.16111559,-0.16554436,0.1036943,0.28479022,-0.21915653,-0.6202452,-6.6000004,-27.056252,-28.968752
1763129276672,-0.1788635,6.4827547,8.141579,-0.16111559,-0.16554436,0.1036943,0.28479022,-0.21915653,-0.6202452,-6.6000004,-27.056252,-28.968752
1763129276678,-0.1788635,6.4827547,8.141579,-0.16111559,-0.16554436,0.1036943,0.28226328,-0.2197657,-0.61980486,-6.6000004,-27.056252,-28.968752
1763129276680,-0.1788635,6.4827547,8.141579,-0.16111559,-0.16554436,0.1036943,0.28226328,-0.2197657,-0.61980486,-5.1000004,-25.25625,-29.60625
1763129276698,-0.66699934,6.2105713,8.200802,-0.16111559,-0.16554436,0.1036943,0.28226328,-0.2197657,-0.61980486,-5.1000004,-25.25625,-29.60625
1763129276698,-0.66699934,6.2105713,8.200802,0.060475614,0.059253883,0.0772744,0.28226328,-0.2197657,-0.61980486,-5.1000004,-25.25625,-29.60625
1763129276699,-0.66699934,6.2105713,8.200802,0.060475614,0.059253883,0.0772744,0.28226328,-0.2197657,-0.61980486,-7.8750005,-27.018751,-28.9125
1763129276699,-0.66699934,6.2105713,8.200802,0.060475614,0.059253883,0.0772744,0.28033867,-0.22159688,-0.6239496,-7.8750005,-27.018751,-28.9125
