timestamp,accX,accY,accZ,gyroX,gyroY,gyroZ,rotX,rotY,rotZ,magX,magY,magZ
1763129350637,4.022933,4.7359943,5.898906,-0.22311836,0.27382013,0.21609342,0.18661079,-0.33231065,-0.34642377,-24.431252,-0.71250004,-23.400002
1763129350644,4.022933,4.7359943,5.898906,-0.32039857,0.16019928,0.2689332,0.18661079,-0.33231065,-0.34642377,-24.431252,-0.71250004,-23.400002
1763129350644,4.022933,4.7359943,5.898906,-0.32039857,0.16019928,0.2689332,0.18377122,-0.33009145,-0.34375894,-24.431252,-0.71250004,-23.400002
1763129350644,4.1347976,5.133801,6.433702,-0.32039857,0.16019928,0.2689332,0.18377122,-0.33009145,-0.34375894,-24.431252,-0.71250004,-23.400002
1763129350659,4.1347976,5.133801,6.433702,-0.32039857,0.16019928,0.2689332,0.18377122,-0.33009145,-0.34375894,-24.056252,2.2875001,-21.056252
1763129350666,4.1347976,5.133801,6.433702,-0.34361145,-0.058337588,0.26572618,0.18377122,-0.33009145,-0.34375894,-24.056252,2.2875001,-21.056252
1763129350667,4.4428735,5.2845488,6.701698,-0.34361145,-0.058337588,0.26572618,0.18377122,-0.33009145,-0.34375894,-24.056252,2.2875001,-21.056252
1763129350678,4.4428735,5.2845488,6.701698,-0.34361145,-0.058337588,0.26572618,0.17999054,-0.32970962,-0.34161082,-24.056252,2.2875001,-21.056252
1763129350678,4.4428735,5.2845488,6.701698,-0.34361145,-0.058337588,0.26572618,0.17999054,-0.32970962,-0.34161082,-27.093752,-0.3375,-20.493752
1763129350687,4.4428735,5.2845488,6.701698,-0.32772896,-0.1310305,0.18035783,0.17999054,-0.32970962,-0.34161082,-27.093752,-0.3375,-20.493752
1763129350687,4.7282176,5.243273,6.8339014,-0.32772896,-0.1310305,0.18035783,0.17999054,-0.32970962,-0.34161082,-27.093752,-0.3375,-20.493752
1763129350697,4.7282176,5.243273,6.8339014,-0.32772896,-0.1310305,0.18035783,0.17619166,-0.33000728,-0.34078312,-27.093752,-0.3375,-20.493752
1763129350698,4.7282176,5.243273,6.8339014,-0.32772896,-0.1310305,0.18035783,0.17619166,-0.33000728,-0.34078312,-24.6,-1.21875,-23.15625
1763129350707,4.7282176,5.243273,6.8339014,-0.25518876,0.004734202,0.050854493,0.17619166,-0.33000728,-0.34078312,-24.6,-1.21875,-23.15625
1763129350708,4.645665,5.276772,7.092326,-0.25518876,0.004734202,0.050854493,0.17619166,-0.33000728,-0.34078312,-24.6,-1.21875,-23.15625
1763129350718,4.645665,5.276772,7.092326,-0.25518876,0.004734202,0.050854493,0.17423609,-0.32897624,-0.33983105,-24.6,-1.21875,-23.15625
1763129350719,4.645665,5.276772,7.092326,-0.25518876,0.004734202,0.050854493,0.17423609,-0.32897624,-0.33983105,-26.118752,-1.5562501,-20.94375
1763129350728,4.645665,5.276772,7.092326,-0.16630794,0.14630212,0.026725333,0.17423609,-0.32897624,-0.33983105,-26.118752,-1.5562501,-20.94375
1763129350728,4.197011,5.2008,7.09113,-0.16630794,0.14630212,0.026725333,0.17423609,-0.32897624,-0.33983105,-26.118752,-1.5562501,-20.94375
1763129350738,4.197011,5.2008,7.09113,-0.16630794,0.14630212,0.026725333,0.17388584,-0.32678095,-0.33797213,-26.118752,-1.5562501,-20.94375
1763129350739,4.197011,5.2008,7.09113,-0.16630794,0.14630212,0.026725333,0.17388584,-0.32678095,-0.33797213,-25.031252,-1.1437501,-21.9375
1763129350750,4.197011,5.2008,7.09113,-0.14767656,0.11255184,0.09880738,0.17388584,-0.32678095,-0.33797213,-25.031252,-1.1437501,-21.9375
1763129350750,4.034299,5.0715876,7.055238,-0.14767656,0.11255184,0.09880738,0.17388584,-0.32678095,-0.33797213,-25.031252,-1.1437501,-21.9375
1763129350758,4.034299,5.0715876,7.055238,-0.14767656,0.11255184,0.09880738,0.17314568,-0.32512978,-0.3360801,-25.031252,-1.1437501,-21.9375
1763129350759,4.034299,5.0715876,7.055238,-0.14767656,0.11255184,0.09880738,0.17314568,-0.32512978,-0.3360801,-24.13125,0.4875,-22.575
1763129350770,4.034299,5.0715876,7.055238,-0.14966187,0.027488915,0.1443168,0.17314568,-0.32512978,-0.3360801,-24.13125,0.4875,-22.575
1763129350771,4.2705903,5.042874,7.2676005,-0.14966187,0.027488915,0.1443168,0.17314568,-0.32512978,-0.3360801,-24.13125,0.4875,-22.575
1763129350777,4.2705903,5.042874,7.2676005,-0.14966187,0.027488915,0.1443168,0.17200303,-0.3242642,-0.3337499,-24.13125,0.4875,-22.575
1763129350778,4.2705903,5.042874,7.2676005,-0.14966187,0.027488915,0.1443168,0.17200303,-0.3242642,-0.3337499,-26.025002,-0.58125,-21.337502
1763129350792,4.2705903,5.042874,7.2676005,-0.09346231,-0.01725693,0.0923933,0.17200303,-0.3242642,-0.3337499,-26.025002,-0.58125,-21.337502
1763129350793,4.5732822,5.031508,7.2693954,-0.09346231,-0.01725693,0.0923933,0.17200303,-0.3242642,-0.3337499,-26.025002,-0.58125,-21.337502
1763129350797,4.5732822,5.031508,7.2693954,-0.09346231,-0.01725693,0.0923933,0.1712909,-0.32395545,-0.33191833,-26.025002,-0.58125,-21.337502
1763129350798,4.5732822,5.031508,7.2693954,-0.09346231,-0.01725693,0.0923933,0.1712909,-0.32395545,-0.33191833,-24.993752,0.3,-22.3125
1763129350813,4.5732822,5.031508,7.2693954,-0.03604102,0.021685699,-0.0067195124,0.1712909,-0.32395545,-0.33191833,-24.993752,0.3,-22.3125
1763129350814,4.4805603,5.0327044,7.092326,-0.03604102,0.021685699,-0.0067195124,0.1712909,-0.32395545,-0.33191833,-24.993752,0.3,-22.3125
1763129350819,4.4805603,5.0327044,7.092326,-0.03604102,0.021685699,-0.0067195124,0.1712909,-0.32395545,-0.33191833,-23.25,1.2,-21.431252
1763129350820,4.4805603,5.0327044,7.092326,-0.03604102,0.021685699,-0.0067195124,0.17158419,-0.32334986,-0.33058175,-23.25,1.2,-21.431252
1763129350833,4.4805603,5.0327044,7.092326,-0.010537418,0.066889696,-0.053450666,0.17158419,-0.32334986,-0.33058175,-23.25,1.2,-21.431252
1763129350834,4.2161536,4.9734817,6.8739815,-0.010537418,0.066889696,-0.053450666,0.17158419,-0.32334986,-0.33058175,-23.25,1.2,-21.431252
1763129350838,4.2161536,4.9734817,6.8739815,-0.010537418,0.066889696,-0.053450666,0.1721686,-0.32249388,-0.33024895,-23.25,1.2,-21.431252
1763129350839,4.2161536,4.9734817,6.8739815,-0.010537418,0.066889696,-0.053450666,0.1721686,-0.32249388,-0.33024895,-24.843752,-0.63750005,-22.63125
1763129350855,4.2161536,4.9734817,6.8739815,-0.028252495,0.109039366,-0.035124727,0.1721686,-0.32249388,-0.33024895,-24.843752,-0.63750005,-22.63125
1763129350855,3.984648,4.9531426,6.81775,-0.028252495,0.109039366,-0.035124727,0.1721686,-0.32249388,-0.33024895,-24.843752,-0.63750005,-22.63125
1763129350857,3.984648,4.9531426,6.81775,-0.028252495,0.109039366,-0.035124727,0.17278609,-0.32116497,-0.3295288,-24.843752,-0.63750005,-22.63125
1763129350858,3.984648,4.9531426,6.81775,-0.028252495,0.109039366,-0.035124727,0.17278609,-0.32116497,-0.3295288,-24.150002,2.7562501,-20.456251
1763129350875,3.9655054,5.0362935,6.98106,-0.028252495,0.109039366,-0.035124727,0.17278609,-0.32116497,-0.3295288,-24.150002,2.7562501,-20.456251
1763129350876,3.9655054,5.0362935,6.98106,-0.05146536,0.09193515,0.037415467,0.17278609,-0.32116497,-0.3295288,-24.150002,2.7562501,-20.456251
1763129350877,3.9655054,5.0362935,6.98106,-0.05146536,0.09193515,0.037415467,0.17285983,-0.32003856,-0.3284103,-24.150002,2.7562501,-20.456251
1763129350877,3.9655054,5.0362935,6.98106,-0.05146536,0.09193515,0.037415467,0.17285983,-0.32003856,-0.3284103,-25.2,-0.075,-21.975
1763129350898,3.9655054,5.0362935,6.98106,-0.07895427,0.04703659,0.12370012,0.17285983,-0.32003856,-0.3284103,-25.2,-0.075,-21.975
1763129350898,3.9655054,5.0362935,6.98106,-0.07895427,0.04703659,0.12370012,0.17219047,-0.31939316,-0.32683727,-25.2,-0.075,-21.975
1763129350898,4.14736,5.002794,7.012167,-0.07895427,0.04703659,0.12370012,0.17219047,-0.31939316,-0.32683727,-25.2,-0.075,-21.975
1763129350899,4.14736,5.002794,7.012167,-0.07895427,0.04703659,0.12370012,0.17219047,-0.31939316,-0.32683727,-28.556252,-2.41875,-18.712502
1763129350918,4.14736,5.002794,7.012167,-0.07895427,0.04703659,0.12370012,0.17058577,-0.31888035,-0.32584783,-28.556252,-2.41875,-18.712502
1763129350920,4.14736,5.002794,7.012167,-0.07895427,0.04703659,0.12370012,0.17058577,-0.31888035,-0.32584783,-26.1375,1.8000001,-21.84375
1763129350921,4.14736,5.002794,7.012167,-0.13790272,0.033139415,0.15210533,0.17058577,-0.31888035,-0.32584783,-26.1375,1.8000001,-21.84375
1763129350923,4.4279184,4.8681974,6.9930243,-0.13790272,0.033139415,0.15210533,0.17058577,-0.31888035,-0.32584783,-26.1375,1.8000001,-21.84375
1763129350939,4.4279184,4.8681974,6.9930243,-0.13790272,0.033139415,0.15210533,0.16847202,-0.31790113,-0.32514793,-26.1375,1.8000001,-21.84375
1763129350941,4.4279184,4.8681974,6.9930243,-0.13790272,0.033139415,0.15210533,0.16847202,-0.31790113,-0.32514793,-23.625,-0.3375,-21.300001
1763129350942,4.4279184,4.8681974,6.9930243,-0.20723587,0.05894845,0.13225223,0.16847202,-0.31790113,-0.32514793,-23.625,-0.3375,-21.300001
1763129350943,4.4985065,4.8155556,7.23111,-0.20723587,0.05894845,0.13225223,0.16847202,-0.31790113,-0.32514793,-23.625,-0.3375,-21.300001
1763129350957,4.4985065,4.8155556,7.23111,-0.20723587,0.05894845,0.13225223,0.16847202,-0.31790113,-0.32514793,-22.987501,1.3875,-23.38125
1763129350960,4.570291,4.7491546,7.55773,-0.20723587,0.05894845,0.13225223,0.16847202,-0.31790113,-0.32514793,-22.987501,1.3875,-23.38125
1763129350962,4.570291,4.7491546,7.55773,-0.20723587,0.05894845,0.13225223,0.16640909,-0.31658491,-0.32453498,-22.987501,1.3875,-23.38125
1763129350963,4.570291,4.7491546,7.55773,-0.21288638,0.09025527,0.12202024,0.16640909,-0.31658491,-0.32453498,-22.987501,1.3875,-23.38125
1763129350978,4.570291,4.7491546,7.55773,-0.21288638,0.09025527,0.12202024,0.16640909,-0.31658491,-0.32453498,-23.0625,1.7062501,-21.975
1763129350982,4.570291,4.7491546,7.55773,-0.14599667,0.10415245,0.09590577,0.16640909,-0.31658491,-0.32453498,-23.0625,1.7062501,-21.975
1763129350983,4.570291,4.7491546,7.55773,-0.14599667,0.10415245,0.09590577,0.16503713,-0.3153018,-0.32396814,-23.0625,1.7062501,-21.975
1763129350984,4.6755753,4.67737,7.739585,-0.14599667,0.10415245,0.09590577,0.16503713,-0.3153018,-0.32396814,-23.0625,1.7062501,-21.975
1763129350998,4.6755753,4.67737,7.739585,-0.14599667,0.10415245,0.09590577,0.16503713,-0.3153018,-0.32396814,-24.562502,-0.075,-21.9375
1763129351001,4.6755753,4.67737,7.739585,-0.050396346,0.08933897,0.04657844,0.16503713,-0.3153018,-0.32396814,-24.562502,-0.075,-21.9375
1763129351002,4.6755753,4.67737,7.739585,-0.050396346,0.08933897,0.04657844,0.1646119,-0.31439385,-0.32357916,-24.562502,-0.075,-21.9375
1763129351003,4.898706,4.673781,7.7365937,-0.050396346,0.08933897,0.04657844,0.1646119,-0.31439385,-0.32357916,-24.562502,-0.075,-21.9375
1763129351019,4.898706,4.673781,7.7365937,-0.050396346,0.08933897,0.04657844,0.1646119,-0.31439385,-0.32357916,-23.118752,0.5625,-22.743752
1763129351025,4.898706,4.673781,7.7365937,-0.050396346,0.08933897,0.04657844,0.16458975,-0.31412637,-0.32344404,-23.118752,0.5625,-22.743752
1763129351025,4.697709,4.6612186,7.4333034,-0.050396346,0.08933897,0.04657844,0.16458975,-0.31412637,-0.32344404,-23.118752,0.5625,-22.743752
1763129351026,4.697709,4.6612186,7.4333034,-6.108648E-4,0.03405571,0.0044287695,0.16458975,-0.31412637,-0.32344404,-23.118752,0.5625,-22.743752
1763129351037,4.697709,4.6612186,7.4333034,-6.108648E-4,0.03405571,0.0044287695,0.16458975,-0.31412637,-0.32344404,-23.90625,1.5,-23.681252
1763129351044,4.697709,4.6612186,7.4333034,-0.041844238,-0.04214967,-0.017715078,0.16458975,-0.31412637,-0.32344404,-23.90625,1.5,-23.681252
1763129351045,4.697709,4.6612186,7.4333034,-0.041844238,-0.04214967,-0.017715078,0.1640533,-0.31438097,-0.32376704,-23.90625,1.5,-23.681252
1763129351045,4.5481577,4.691727,7.355537,-0.041844238,-0.04214967,-0.017715078,0.1640533,-0.31438097,-0.32376704,-23.90625,1.5,-23.681252
1763129351057,4.5481577,4.691727,7.355537,-0.041844238,-0.04214967,-0.017715078,0.1640533,-0.31438097,-0.32376704,-22.518751,2.1750002,-21.018751
1763129351065,4.5481577,4.691727,7.355537,-0.041844238,-0.04214967,-0.017715078,0.16401114,-0.31441233,-0.32419235,-22.518751,2.1750002,-21.018751
1763129351066,4.4518466,4.6564326,7.583453,-0.041844238,-0.04214967,-0.017715078,0.16401114,-0.31441233,-0.32419235,-22.518751,2.1750002,-21.018751
1763129351068,4.4518466,4.6564326,7.583453,-0.0108428495,-0.01282816,-0.043371398,0.16401114,-0.31441233,-0.32419235,-22.518751,2.1750002,-21.018751
1763129351079,4.4518466,4.6564326,7.583453,-0.0108428495,-0.01282816,-0.043371398,0.16401114,-0.31441233,-0.32419235,-23.60625,-0.4875,-21.393751
1763129351085,4.4518466,4.6564326,7.583453,0.08414663,0.026725333,-0.058490302,0.16401114,-0.31441233,-0.32419235,-23.60625,-0.4875,-21.393751
1763129351086,4.3471603,4.674379,7.26102,0.08414663,0.026725333,-0.058490302,0.16401114,-0.31441233,-0.32419235,-23.60625,-0.4875,-21.393751
1763129351098,4.3471603,4.674379,7.26102,0.08414663,0.026725333,-0.058490302,0.1648836,-0.3143901,-0.32473493,-23.60625,-0.4875,-21.393751
1763129351100,4.3471603,4.674379,7.26102,0.08414663,0.026725333,-0.058490302,0.1648836,-0.3143901,-0.32473493,-24.581251,0.075,-21.84375
1763129351107,4.3471603,4.674379,7.26102,0.06856957,-0.011300999,-0.06780599,0.1648836,-0.3143901,-0.32473493,-24.581251,0.075,-21.84375
1763129351108,4.260421,4.729414,6.9074807,0.06856957,-0.011300999,-0.06780599,0.1648836,-0.3143901,-0.32473493,-24.581251,0.075,-21.84375
1763129351119,4.260421,4.729414,6.9074807,0.06856957,-0.011300999,-0.06780599,0.16575938,-0.3145636,-0.32488975,-24.581251,0.075,-21.84375
1763129351120,4.260421,4.729414,6.9074807,0.06856957,-0.011300999,-0.06780599,0.16575938,-0.3145636,-0.32488975,-23.2875,1.5,-21.825
1763129351127,4.260421,4.729414,6.9074807,-6.108648E-4,-0.026725333,-0.07055488,0.16575938,-0.3145636,-0.32488975,-23.2875,1.5,-21.825
1763129351128,4.2831526,4.788636,6.942775,-6.108648E-4,-0.026725333,-0.07055488,0.16575938,-0.3145636,-0.32488975,-23.2875,1.5,-21.825
1763129351137,4.2831526,4.788636,6.942775,-6.108648E-4,-0.026725333,-0.07055488,0.1661158,-0.31461275,-0.32500446,-23.2875,1.5,-21.825
1763129351138,4.2831526,4.788636,6.942775,-6.108648E-4,-0.026725333,-0.07055488,0.1661158,-0.31461275,-0.32500446,-23.643751,-0.0375,-23.34375
1763129351148,4.2831526,4.788636,6.942775,-0.040622506,0.020158539,-0.06276636,0.1661158,-0.31461275,-0.32500446,-23.643751,-0.0375,-23.34375
1763129351149,4.1958146,4.8939204,7.0408807,-0.040622506,0.020158539,-0.06276636,0.1661158,-0.31461275,-0.32500446,-23.643751,-0.0375,-23.34375
1763129351160,4.1958146,4.8939204,7.0408807,-0.040622506,0.020158539,-0.06276636,0.1661158,-0.31461275,-0.32500446,-23.868752,1.2,-22.518751
1763129351170,4.1958146,4.8939204,7.0408807,-0.053603385,0.03848448,-0.025045456,0.1661158,-0.31461275,-0.32500446,-23.868752,1.2,-22.518751
1763129351171,4.118646,4.883153,7.220342,-0.053603385,0.03848448,-0.025045456,0.1661158,-0.31461275,-0.32500446,-23.868752,1.2,-22.518751
1763129351178,4.118646,4.883153,7.220342,-0.053603385,0.03848448,-0.025045456,0.16636986,-0.3143393,-0.32502913,-23.868752,1.2,-22.518751
1763129351180,4.118646,4.883153,7.220342,-0.053603385,0.03848448,-0.025045456,0.16659869,-0.31375834,-0.3248083,-23.868752,1.2,-22.518751
1763129351181,4.118646,4.883153,7.220342,-0.053603385,0.03848448,-0.025045456,0.16659869,-0.31375834,-0.3248083,-22.40625,1.6875001,-23.4375
1763129351191,4.118646,4.883153,7.220342,-0.025045456,0.058337588,0.016187917,0.16659869,-0.31375834,-0.3248083,-22.40625,1.6875001,-23.4375
1763129351192,4.0438704,4.81077,7.132406,-0.025045456,0.058337588,0.016187917,0.16659869,-0.31375834,-0.3248083,-22.40625,1.6875001,-23.4375
1763129351197,4.0438704,4.81077,7.132406,-0.025045456,0.058337588,0.016187917,0.16673121,-0.31303167,-0.32479542,-22.40625,1.6875001,-23.4375
1763129351199,4.0438704,4.81077,7.132406,-0.025045456,0.058337588,0.016187917,0.16673121,-0.31303167,-0.32479542,-23.475,0.3375,-21.88125
1763129351211,4.0438704,4.81077,7.132406,-0.076358095,0.05894845,0.076816246,0.16673121,-0.31303167,-0.32479542,-23.475,0.3375,-21.88125
1763129351212,4.052245,4.7838507,6.9248285,-0.076358095,0.05894845,0.076816246,0.16673121,-0.31303167,-0.32479542,-23.475,0.3375,-21.88125
1763129351219,4.052245,4.7838507,6.9248285,-0.076358095,0.05894845,0.076816246,0.16563298,-0.3125276,-0.32602876,-23.475,0.3375,-21.88125
1763129351220,4.052245,4.7838507,6.9248285,-0.076358095,0.05894845,0.076816246,0.16563298,-0.3125276,-0.32602876,-24.937502,-1.7625,-20.85
1763129351232,4.052245,4.7838507,6.9248285,-0.17241658,0.04382955,0.12660173,0.16563298,-0.3125276,-0.32602876,-24.937502,-1.7625,-20.85
1763129351233,4.281358,4.7826543,7.0396843,-0.17241658,0.04382955,0.12660173,0.16563298,-0.3125276,-0.32602876,-24.937502,-1.7625,-20.85
1763129351238,4.281358,4.7826543,7.0396843,-0.17241658,0.04382955,0.12660173,0.16426855,-0.31176743,-0.32510418,-24.937502,-1.7625,-20.85
1763129351241,4.281358,4.7826543,7.0396843,-0.17241658,0.04382955,0.12660173,0.16426855,-0.31176743,-0.32510418,-22.3125,1.21875,-23.8875
1763129351254,4.281358,4.7826543,7.0396843,-0.20479241,-9.162972E-4,0.115453444,0.16426855,-0.31176743,-0.32510418,-22.3125,1.21875,-23.8875
1763129351255,4.505087,4.6600223,7.4386873,-0.20479241,-9.162972E-4,0.115453444,0.16426855,-0.31176743,-0.32510418,-22.3125,1.21875,-23.8875
1763129351260,4.505087,4.6600223,7.4386873,-0.20479241,-9.162972E-4,0.115453444,0.16239755,-0.3114543,-0.32419276,-22.3125,1.21875,-23.8875
1763129351261,4.505087,4.6600223,7.4386873,-0.20479241,-9.162972E-4,0.115453444,0.16239755,-0.3114543,-0.32419276,-26.38125,-0.50625,-23.118752
1763129351274,4.505087,4.6600223,7.4386873,-0.1443168,-0.116217025,0.055130545,0.16239755,-0.3114543,-0.32419276,-26.38125,-0.50625,-23.118752
1763129351275,4.423731,4.562515,7.5996046,-0.1443168,-0.116217025,0.055130545,0.16239755,-0.3114543,-0.32419276,-26.38125,-0.50625,-23.118752
1763129351277,4.423731,4.562515,7.5996046,-0.1443168,-0.116217025,0.055130545,0.16052699,-0.31209898,-0.32345524,-26.38125,-0.50625,-23.118752
1763129351278,4.423731,4.562515,7.5996046,-0.1443168,-0.116217025,0.055130545,0.16052699,-0.31209898,-0.32345524,-24.675001,0.69375,-22.181252
1763129351295,4.423731,4.562515,7.5996046,-0.108123064,-0.13591741,0.03970621,0.16052699,-0.31209898,-0.32345524,-24.675001,0.69375,-22.181252
1763129351297,4.3836513,4.562515,7.435098,-0.108123064,-0.13591741,0.03970621,0.16052699,-0.31209898,-0.32345524,-24.675001,0.69375,-22.181252
1763129351299,4.3836513,4.562515,7.435098,-0.108123064,-0.13591741,0.03970621,0.16052699,-0.31209898,-0.32345524,-24.88125,1.7812501,-21.16875
1763129351301,4.3836513,4.562515,7.435098,-0.108123064,-0.13591741,0.03970621,0.15860564,-0.31284195,-0.3235767,-24.88125,1.7812501,-21.16875
1763129351318,4.3836513,4.562515,7.435098,-0.15210533,0.021380268,0.08689552,0.15860564,-0.31284195,-0.3235767,-24.88125,1.7812501,-21.16875
1763129351319,4.3836513,4.562515,7.435098,-0.15210533,0.021380268,0.08689552,0.15672936,-0.312243,-0.32344005,-24.88125,1.7812501,-21.16875
1763129351320,4.4171505,4.6097727,7.1306114,-0.15210533,0.021380268,0.08689552,0.15672936,-0.312243,-0.32344005,-24.88125,1.7812501,-21.16875
1763129351321,4.4171505,4.6097727,7.1306114,-0.15210533,0.021380268,0.08689552,0.15672936,-0.312243,-0.32344005,-24.13125,0.99375004,-20.118752
1763129351339,4.536792,4.5451665,7.3663044,-0.15210533,0.021380268,0.08689552,0.15672936,-0.312243,-0.32344005,-24.13125,0.99375004,-20.118752
1763129351340,4.536792,4.5451665,7.3663044,-0.15210533,0.021380268,0.08689552,0.15518835,-0.31071526,-0.3219662,-24.13125,0.99375004,-20.118752
1763129351341,4.536792,4.5451665,7.3663044,-0.21578798,0.12492185,0.11133011,0.15518835,-0.31071526,-0.3219662,-24.13125,0.99375004,-20.118752
1763129351343,4.536792,4.5451665,7.3663044,-0.21578798,0.12492185,0.11133011,0.15518835,-0.31071526,-0.3219662,-23.75625,0.28125,-20.1375
1763129351358,4.536792,4.5451665,7.3663044,-0.17409647,0.06750056,0.05894845,0.15518835,-0.31071526,-0.3219662,-23.75625,0.28125,-20.1375
1763129351360,4.536792,4.5451665,7.3663044,-0.17409647,0.06750056,0.05894845,0.15376677,-0.309719,-0.32091254,-23.75625,0.28125,-20.1375
1763129351361,4.536792,4.5451665,7.3663044,-0.17409647,0.06750056,0.05894845,0.15376677,-0.309719,-0.32091254,-22.95,2.68125,-23.56875
1763129351363,4.566702,4.4572306,7.704889,-0.17409647,0.06750056,0.05894845,0.15376677,-0.309719,-0.32091254,-22.95,2.68125,-23.56875
1763129351378,4.566702,4.4572306,7.704889,-0.17409647,0.06750056,0.05894845,0.15376677,-0.309719,-0.32091254,-24.056252,2.2875001,-21.35625
1763129351380,4.566702,4.4572306,7.704889,-0.07223476,-0.038789913,-0.033597562,0.15376677,-0.309719,-0.32091254,-24.056252,2.2875001,-21.35625
1763129351382,4.566702,4.4572306,7.704889,-0.07223476,-0.038789913,-0.033597562,0.15269914,-0.30971047,-0.32127926,-24.056252,2.2875001,-21.35625
1763129351383,4.5332026,4.4638104,7.765308,-0.07223476,-0.038789913,-0.033597562,0.15269914,-0.30971047,-0.32127926,-24.056252,2.2875001,-21.35625
1763129351397,4.5332026,4.4638104,7.765308,-0.07223476,-0.038789913,-0.033597562,0.15269914,-0.30971047,-0.32127926,-22.331251,1.2375001,-22.6875
1763129351400,4.319643,4.549354,7.433902,-0.07223476,-0.038789913,-0.033597562,0.15269914,-0.30971047,-0.32127926,-22.331251,1.2375001,-22.6875
1763129351402,4.319643,4.549354,7.433902,-0.07223476,-0.038789913,-0.033597562,0.15225334,-0.30979133,-0.3223714,-22.331251,1.2375001,-22.6875
1763129351403,4.319643,4.549354,7.433902,-0.0010690134,-0.029016078,-0.07299834,0.15225334,-0.30979133,-0.3223714,-22.331251,1.2375001,-22.6875
1763129351419,4.319643,4.549354,7.433902,-0.0010690134,-0.029016078,-0.07299834,0.15225334,-0.30979133,-0.3223714,-23.75625,0.58125,-22.48125
1763129351422,4.319643,4.549354,7.433902,-0.021380268,0.057574004,-0.04092794,0.15225334,-0.30979133,-0.3223714,-23.75625,0.58125,-22.48125
1763129351424,4.319643,4.549354,7.433902,-0.021380268,0.057574004,-0.04092794,0.15234195,-0.3090929,-0.32286653,-23.75625,0.58125,-22.48125
1763129351425,4.23051,4.564309,7.198807,-0.021380268,0.057574004,-0.04092794,0.15234195,-0.3090929,-0.32286653,-23.75625,0.58125,-22.48125
1763129351438,4.23051,4.564309,7.198807,-0.021380268,0.057574004,-0.04092794,0.15234195,-0.3090929,-0.32286653,-23.2875,1.5,-21.525002
1763129351443,4.23051,4.564309,7.198807,-0.06429352,0.1565341,-0.004734202,0.15234195,-0.3090929,-0.32286653,-23.2875,1.5,-21.525002
1763129351444,4.23051,4.564309,7.198807,-0.06429352,0.1565341,-0.004734202,0.15269081,-0.30743533,-0.32231364,-23.2875,1.5,-21.525002
1763129351446,4.284947,4.5768714,7.285547,-0.06429352,0.1565341,-0.004734202,0.15269081,-0.30743533,-0.32231364,-23.2875,1.5,-21.525002
1763129351457,4.284947,4.5768714,7.285547,-0.06429352,0.1565341,-0.004734202,0.15269081,-0.30743533,-0.32231364,-24.750002,-0.3,-23.306252
1763129351464,4.284947,4.5768714,7.285547,-0.06429352,0.1565341,-0.004734202,0.15274394,-0.3061929,-0.32155812,-24.750002,-0.3,-23.306252
1763129351465,4.284947,4.5768714,7.285547,-0.068722285,0.116675176,0.019394957,0.15274394,-0.3061929,-0.32155812,-24.750002,-0.3,-23.306252
1763129351467,4.2035913,4.4781675,7.664809,-0.068722285,0.116675176,0.019394957,0.15274394,-0.3061929,-0.32155812,-24.750002,-0.3,-23.306252
1763129351478,4.2035913,4.4781675,7.664809,-0.068722285,0.116675176,0.019394957,0.15274394,-0.3061929,-0.32155812,-23.6625,1.575,-22.575
1763129351484,4.2035913,4.4781675,7.664809,0.037568185,0.11453715,-0.0013744457,0.15274394,-0.3061929,-0.32155812,-23.6625,1.575,-22.575
1763129351485,4.2035913,4.4781675,7.664809,0.037568185,0.11453715,-0.0013744457,0.15329516,-0.30496252,-0.32146767,-23.6625,1.575,-22.575
1763129351485,4.493721,4.511069,7.810173,0.037568185,0.11453715,-0.0013744457,0.15329516,-0.30496252,-0.32146767,-23.6625,1.575,-22.575
1763129351498,4.493721,4.511069,7.810173,0.037568185,0.11453715,-0.0013744457,0.15329516,-0.30496252,-0.32146767,-22.03125,3.24375,-22.06875
1763129351505,4.493721,4.511069,7.810173,0.12965605,0.2075413,-0.028710645,0.15329516,-0.30496252,-0.32146767,-22.03125,3.24375,-22.06875
1763129351507,4.331009,4.5003014,7.5146594,0.12965605,0.2075413,-0.028710645,0.15329516,-0.30496252,-0.32146767,-22.03125,3.24375,-22.06875
1763129351520,4.331009,4.5003014,7.5146594,0.12965605,0.2075413,-0.028710645,0.15512024,-0.30329594,-0.32021016,-22.03125,3.24375,-22.06875
1763129351521,4.331009,4.5003014,7.5146594,0.12965605,0.2075413,-0.028710645,0.15512024,-0.30329594,-0.32021016,-23.456251,0.975,-21.900002
1763129351527,4.331009,4.5003014,7.5146594,0.123089254,0.18723005,-0.032223117,0.15512024,-0.30329594,-0.32021016,-23.456251,0.975,-21.900002
1763129351528,4.068995,4.44407,7.151549,0.123089254,0.18723005,-0.032223117,0.15512024,-0.30329594,-0.32021016,-23.456251,0.975,-21.900002
1763129351537,4.068995,4.44407,7.151549,0.123089254,0.18723005,-0.032223117,0.15661055,-0.3020977,-0.3202593,-23.456251,0.975,-21.900002
1763129351538,4.068995,4.44407,7.151549,0.123089254,0.18723005,-0.032223117,0.15661055,-0.3020977,-0.3202593,-24.6,0.22500001,-23.081251
1763129351547,4.068995,4.44407,7.151549,-0.011148282,0.11026109,0.011759147,0.15661055,-0.3020977,-0.3202593,-24.6,0.22500001,-23.081251
1763129351548,4.118646,4.467998,6.9044895,-0.011148282,0.11026109,0.011759147,0.15661055,-0.3020977,-0.3202593,-24.6,0.22500001,-23.081251
1763129351557,4.118646,4.467998,6.9044895,-0.011148282,0.11026109,0.011759147,0.15720212,-0.30099455,-0.31913915,-24.6,0.22500001,-23.081251
1763129351558,4.118646,4.467998,6.9044895,-0.011148282,0.11026109,0.011759147,0.15720212,-0.30099455,-0.31913915,-22.29375,2.53125,-22.10625
1763129351569,4.118646,4.467998,6.9044895,-0.15256348,0.021838415,0.03252855,0.15720212,-0.30099455,-0.31913915,-22.29375,2.53125,-22.10625
1763129351570,4.226921,4.5044885,7.3011003,-0.15256348,0.021838415,0.03252855,0.15720212,-0.30099455,-0.31913915,-22.29375,2.53125,-22.10625
1763129351578,4.226921,4.5044885,7.3011003,-0.15256348,0.021838415,0.03252855,0.15610673,-0.30067968,-0.31886882,-22.29375,2.53125,-22.10625
1763129351579,4.226921,4.5044885,7.3011003,-0.15256348,0.021838415,0.03252855,0.15610673,-0.30067968,-0.31886882,-24.2625,1.2750001,-22.81875
1763129351589,4.226921,4.5044885,7.3011003,-0.15989386,-0.19807291,0.047494736,0.15610673,-0.30067968,-0.31886882,-24.2625,1.2750001,-22.81875
1763129351591,4.2610188,4.516453,7.9908314,-0.15989386,-0.19807291,0.047494736,0.15610673,-0.30067968,-0.31886882,-24.2625,1.2750001,-22.81875
1763129351598,4.2610188,4.516453,7.9908314,-0.15989386,-0.19807291,0.047494736,0.15395233,-0.3021715,-0.3190291,-24.2625,1.2750001,-22.81875
1763129351599,4.2610188,4.516453,7.9908314,-0.15989386,-0.19807291,0.047494736,0.15395233,-0.3021715,-0.3190291,-24.225,-0.4875,-23.25
1763129351616,4.5834517,4.4285164,7.8370924,-0.15989386,-0.19807291,0.047494736,0.15395233,-0.3021715,-0.3190291,-24.225,-0.4875,-23.25
1763129351617,4.5834517,4.4285164,7.8370924,-0.0044287695,-0.1443168,0.014966187,0.15395233,-0.3021715,-0.3190291,-24.225,-0.4875,-23.25
1763129351618,4.5834517,4.4285164,7.8370924,-0.0044287695,-0.1443168,0.014966187,0.15395233,-0.3021715,-0.3190291,-24.712502,0.84375006,-21.768751
1763129351618,4.5834517,4.4285164,7.8370924,-0.0044287695,-0.1443168,0.014966187,0.15285775,-0.30317113,-0.32001737,-24.712502,0.84375006,-21.768751
