timestamp,accX,accY,accZ,gyroX,gyroY,gyroZ,rotX,rotY,rotZ,magX,magY,magZ
1763129323903,7.556534,4.582854,4.433302,-0.3688096,0.9779945,-0.054366965,-0.30251536,-0.3999606,-0.8032346,-31.781252,-25.800001,-3.6000001
1763129323903,7.556534,4.582854,4.433302,-0.3688096,0.9779945,-0.054366965,-0.2954984,-0.3937415,-0.80803955,-31.781252,-25.800001,-3.6000001
1763129323903,7.021738,4.7778687,4.67737,-0.3688096,0.9779945,-0.054366965,-0.2954984,-0.3937415,-0.80803955,-31.781252,-25.800001,-3.6000001
1763129323918,7.021738,4.7778687,4.67737,-0.3688096,0.9779945,-0.054366965,-0.2954984,-0.3937415,-0.80803955,-33.80625,-26.75625,-3.1875002
1763129323921,7.021738,4.7778687,4.67737,-0.3500255,1.3938407,0.00641408,-0.2954984,-0.3937415,-0.80803955,-33.80625,-26.75625,-3.1875002
1763129323922,7.021738,4.7778687,4.67737,-0.3500255,1.3938407,0.00641408,-0.28486985,-0.3861481,-0.8136378,-33.80625,-26.75625,-3.1875002
1763129323923,6.452246,4.861019,5.4699926,-0.3500255,1.3938407,0.00641408,-0.28486985,-0.3861481,-0.8136378,-33.80625,-26.75625,-3.1875002
1763129323938,6.452246,4.861019,5.4699926,-0.3500255,1.3938407,0.00641408,-0.28486985,-0.3861481,-0.8136378,-31.5375,-25.593752,-4.9500003
1763129323943,6.452246,4.861019,5.4699926,-0.11713332,1.4023929,0.11438443,-0.28486985,-0.3861481,-0.8136378,-31.5375,-25.593752,-4.9500003
1763129323944,6.452246,4.861019,5.4699926,-0.11713332,1.4023929,0.11438443,-0.273435,-0.38014308,-0.8177164,-31.5375,-25.593752,-4.9500003
1763129323944,6.2404814,4.438088,5.9324055,-0.11713332,1.4023929,0.11438443,-0.273435,-0.38014308,-0.8177164,-31.5375,-25.593752,-4.9500003
1763129323957,6.2404814,4.438088,5.9324055,-0.11713332,1.4023929,0.11438443,-0.273435,-0.38014308,-0.8177164,-33.99375,-27.91875,-3.6937501
1763129323963,6.2404814,4.438088,5.9324055,-0.022143848,1.3164136,0.22311836,-0.273435,-0.38014308,-0.8177164,-33.99375,-27.91875,-3.6937501
1763129323964,6.2404814,4.438088,5.9324055,-0.022143848,1.3164136,0.22311836,-0.26283872,-0.37471113,-0.8206806,-33.99375,-27.91875,-3.6937501
1763129323965,6.122635,4.2927237,5.267201,-0.022143848,1.3164136,0.22311836,-0.26283872,-0.37471113,-0.8206806,-33.99375,-27.91875,-3.6937501
1763129323978,6.122635,4.2927237,5.267201,-0.022143848,1.3164136,0.22311836,-0.26283872,-0.37471113,-0.8206806,-29.531252,-25.95,-7.89375
1763129323985,6.122635,4.2927237,5.267201,-0.1443168,1.2154682,0.38545567,-0.26283872,-0.37471113,-0.8206806,-29.531252,-25.95,-7.89375
1763129323986,6.122635,4.2927237,5.267201,-0.1443168,1.2154682,0.38545567,-0.25425807,-0.3681688,-0.8230441,-29.531252,-25.95,-7.89375
1763129323987,5.9503517,4.323232,5.1553364,-0.1443168,1.2154682,0.38545567,-0.25425807,-0.3681688,-0.8230441,-29.531252,-25.95,-7.89375
1763129323998,5.9503517,4.323232,5.1553364,-0.1443168,1.2154682,0.38545567,-0.25425807,-0.3681688,-0.8230441,-31.406252,-26.23125,-7.7625003
1763129324006,5.9503517,4.323232,5.1553364,-0.2952004,1.0984876,0.6244565,-0.25425807,-0.3681688,-0.8230441,-31.406252,-26.23125,-7.7625003
1763129324007,5.7990055,4.2364926,5.5926247,-0.2952004,1.0984876,0.6244565,-0.25425807,-0.3681688,-0.8230441,-31.406252,-26.23125,-7.7625003
1763129324018,5.7990055,4.2364926,5.5926247,-0.2952004,1.0984876,0.6244565,-0.248079,-0.36013636,-0.82459277,-31.406252,-26.23125,-7.7625003
1763129324018,5.7990055,4.2364926,5.5926247,-0.2952004,1.0984876,0.6244565,-0.248079,-0.36013636,-0.82459277,-31.1625,-26.831251,-8.587501
1763129324027,5.7990055,4.2364926,5.5926247,-0.2593121,1.121395,0.7832814,-0.248079,-0.36013636,-0.82459277,-31.1625,-26.831251,-8.587501
1763129324028,5.8749776,4.1318064,6.3948183,-0.2593121,1.121395,0.7832814,-0.248079,-0.36013636,-0.82459277,-31.1625,-26.831251,-8.587501
1763129324037,5.8749776,4.1318064,6.3948183,-0.2593121,1.121395,0.7832814,-0.248079,-0.36013636,-0.82459277,-30.91875,-26.625002,-10.5375
1763129324038,5.8749776,4.1318064,6.3948183,-0.2593121,1.121395,0.7832814,-0.24203661,-0.35182613,-0.82529104,-30.91875,-26.625002,-10.5375
1763129324050,5.8749776,4.1318064,6.3948183,-0.11499529,1.3652828,0.8008437,-0.24203661,-0.35182613,-0.82529104,-30.91875,-26.625002,-10.5375
1763129324051,5.5980086,4.2161536,6.4719872,-0.11499529,1.3652828,0.8008437,-0.24203661,-0.35182613,-0.82529104,-30.91875,-26.625002,-10.5375
1763129324059,5.5980086,4.2161536,6.4719872,-0.11499529,1.3652828,0.8008437,-0.23336206,-0.34355745,-0.82589585,-30.91875,-26.625002,-10.5375
1763129324060,5.5980086,4.2161536,6.4719872,-0.11499529,1.3652828,0.8008437,-0.23336206,-0.34355745,-0.82589585,-29.962502,-24.7875,-8.325001
1763129324069,5.5980086,4.2161536,6.4719872,-0.093615025,1.2977822,0.98624116,-0.23336206,-0.34355745,-0.82589585,-29.962502,-24.7875,-8.325001
1763129324070,5.3790655,4.1635113,6.617351,-0.093615025,1.2977822,0.98624116,-0.23336206,-0.34355745,-0.82589585,-29.962502,-24.7875,-8.325001
1763129324078,5.3790655,4.1635113,6.617351,-0.093615025,1.2977822,0.98624116,-0.22561654,-0.33532462,-0.8251279,-29.962502,-24.7875,-8.325001
1763129324079,5.3790655,4.1635113,6.617351,-0.093615025,1.2977822,0.98624116,-0.22561654,-0.33532462,-0.8251279,-30.975,-26.306252,-9.58125
1763129324092,5.3790655,4.1635113,6.617351,-0.17302746,0.96822065,1.1392628,-0.22561654,-0.33532462,-0.8251279,-30.975,-26.306252,-9.58125
1763129324092,5.602794,3.760321,6.4528446,-0.17302746,0.96822065,1.1392628,-0.22561654,-0.33532462,-0.8251279,-30.975,-26.306252,-9.58125
1763129324100,5.602794,3.760321,6.4528446,-0.17302746,0.96822065,1.1392628,-0.22144644,-0.32735828,-0.82293165,-30.975,-26.306252,-9.58125
1763129324101,5.602794,3.760321,6.4528446,-0.17302746,0.96822065,1.1392628,-0.22144644,-0.32735828,-0.82293165,-30.975,-26.306252,-9.58125
1763129324111,6.1005015,3.5605202,6.526424,-0.17302746,0.96822065,1.1392628,-0.22144644,-0.32735828,-0.82293165,-30.975,-26.306252,-9.58125
1763129324111,6.1005015,3.5605202,6.526424,-0.34025168,0.7829759,1.1971422,-0.22144644,-0.32735828,-0.82293165,-30.975,-26.306252,-9.58125
1763129324117,6.1005015,3.5605202,6.526424,-0.34025168,0.7829759,1.1971422,-0.2199422,-0.31847608,-0.82048833,-30.975,-26.306252,-9.58125
1763129324117,6.1005015,3.5605202,6.526424,-0.34025168,0.7829759,1.1971422,-0.2199422,-0.31847608,-0.82048833,-29.2875,-23.34375,-10.012501
1763129324132,6.1005015,3.5605202,6.526424,-0.4149299,1.0644319,1.0696242,-0.2199422,-0.31847608,-0.82048833,-29.2875,-23.34375,-10.012501
1763129324133,6.645467,3.4420755,6.792027,-0.4149299,1.0644319,1.0696242,-0.2199422,-0.31847608,-0.82048833,-29.2875,-23.34375,-10.012501
1763129324137,6.645467,3.4420755,6.792027,-0.4149299,1.0644319,1.0696242,-0.2199422,-0.31847608,-0.82048833,-30.13125,-23.7,-9.712501
1763129324138,6.645467,3.4420755,6.792027,-0.4149299,1.0644319,1.0696242,-0.21606986,-0.30789682,-0.8193601,-30.13125,-23.7,-9.712501
1763129324153,6.645467,3.4420755,6.792027,-0.4331031,1.6646066,0.8440624,-0.21606986,-0.30789682,-0.8193601,-30.13125,-23.7,-9.712501
1763129324153,6.6598234,3.3367913,6.3996043,-0.4331031,1.6646066,0.8440624,-0.21606986,-0.30789682,-0.8193601,-30.13125,-23.7,-9.712501
1763129324158,6.6598234,3.3367913,6.3996043,-0.4331031,1.6646066,0.8440624,-0.20653002,-0.29483616,-0.8204688,-30.13125,-23.7,-9.712501
1763129324158,6.6598234,3.3367913,6.3996043,-0.4331031,1.6646066,0.8440624,-0.20653002,-0.29483616,-0.8204688,-31.237501,-27.16875,-8.38125
1763129324174,6.6598234,3.3367913,6.3996043,-0.51694435,2.1300855,0.615599,-0.20653002,-0.29483616,-0.8204688,-31.237501,-27.16875,-8.38125
1763129324176,6.4558353,3.1220353,6.530611,-0.51694435,2.1300855,0.615599,-0.20653002,-0.29483616,-0.8204688,-31.237501,-27.16875,-8.38125
1763129324179,6.4558353,3.1220353,6.530611,-0.51694435,2.1300855,0.615599,-0.20653002,-0.29483616,-0.8204688,-25.10625,-21.28125,-12.675
1763129324181,6.4558353,3.1220353,6.530611,-0.51694435,2.1300855,0.615599,-0.19274671,-0.27931562,-0.8235703,-25.10625,-21.28125,-12.675
1763129324195,6.4558353,3.1220353,6.530611,-0.5723803,2.6745188,0.5041162,-0.19274671,-0.27931562,-0.8235703,-25.10625,-21.28125,-12.675
1763129324196,6.125626,2.1595225,7.01097,-0.5723803,2.6745188,0.5041162,-0.19274671,-0.27931562,-0.8235703,-25.10625,-21.28125,-12.675
1763129324198,6.125626,2.1595225,7.01097,-0.5723803,2.6745188,0.5041162,-0.1741103,-0.26079062,-0.82787776,-25.10625,-21.28125,-12.675
1763129324199,6.125626,2.1595225,7.01097,-0.5723803,2.6745188,0.5041162,-0.1741103,-0.26079062,-0.82787776,-27.056252,-22.706251,-13.012501
1763129324216,6.125626,2.1595225,7.01097,-0.5109884,3.6832092,0.4091267,-0.1741103,-0.26079062,-0.82787776,-27.056252,-22.706251,-13.012501
1763129324217,5.5860443,1.96032,7.764111,-0.5109884,3.6832092,0.4091267,-0.1741103,-0.26079062,-0.82787776,-27.056252,-22.706251,-13.012501
1763129324219,5.5860443,1.96032,7.764111,-0.5109884,3.6832092,0.4091267,-0.1462515,-0.23750444,-0.83367234,-27.056252,-22.706251,-13.012501
1763129324220,5.5860443,1.96032,7.764111,-0.5109884,3.6832092,0.4091267,-0.1462515,-0.23750444,-0.83367234,-25.050001,-21.45,-14.587501
1763129324238,5.5860443,1.96032,7.764111,-0.5109884,3.6832092,0.4091267,-0.11424039,-0.21341623,-0.8384513,-25.050001,-21.45,-14.587501
1763129324239,5.5860443,1.96032,7.764111,-0.35995206,4.036442,0.38637197,-0.11424039,-0.21341623,-0.8384513,-25.050001,-21.45,-14.587501
1763129324240,5.5860443,1.96032,7.764111,-0.35995206,4.036442,0.38637197,-0.11424039,-0.21341623,-0.8384513,-21.375,-19.5,-17.04375
1763129324242,4.2867417,1.4656038,7.6540413,-0.35995206,4.036442,0.38637197,-0.11424039,-0.21341623,-0.8384513,-21.375,-19.5,-17.04375
1763129324259,4.2867417,1.4656038,7.6540413,-0.35995206,4.036442,0.38637197,-0.086020224,-0.18422087,-0.84408873,-21.375,-19.5,-17.04375
1763129324260,4.2867417,1.4656038,7.6540413,-1.0053307,3.8925831,0.17623448,-0.086020224,-0.18422087,-0.84408873,-21.375,-19.5,-17.04375
1763129324261,4.2867417,1.4656038,7.6540413,-1.0053307,3.8925831,0.17623448,-0.086020224,-0.18422087,-0.84408873,-20.23125,-20.19375,-18.018751
1763129324263,3.1106694,2.0847468,8.229515,-1.0053307,3.8925831,0.17623448,-0.086020224,-0.18422087,-0.84408873,-20.23125,-20.19375,-18.018751
1763129324277,3.1106694,2.0847468,8.229515,-1.0053307,3.8925831,0.17623448,-0.086020224,-0.18422087,-0.84408873,-19.7625,-17.53125,-18.45
1763129324278,3.1106694,2.0847468,8.229515,-1.9518657,3.0544765,-0.24617851,-0.086020224,-0.18422087,-0.84408873,-19.7625,-17.53125,-18.45
1763129324280,3.1106694,2.0847468,8.229515,-1.9518657,3.0544765,-0.24617851,-0.06873986,-0.1512793,-0.85121924,-19.7625,-17.53125,-18.45
1763129324281,2.248057,2.9832516,8.43111,-1.9518657,3.0544765,-0.24617851,-0.06873986,-0.1512793,-0.85121924,-19.7625,-17.53125,-18.45
1763129324297,2.248057,2.9832516,8.43111,-1.9518657,3.0544765,-0.24617851,-0.06873986,-0.1512793,-0.85121924,-17.1,-15.13125,-18.150002
1763129324300,2.248057,2.9832516,8.43111,-1.9518657,3.0544765,-0.24617851,-0.06729201,-0.12664555,-0.8564529,-17.1,-15.13125,-18.150002
1763129324301,2.248057,2.9832516,8.43111,-2.0833542,1.2777764,-0.36422813,-0.06729201,-0.12664555,-0.8564529,-17.1,-15.13125,-18.150002
1763129324302,2.152344,4.0181475,11.185847,-2.0833542,1.2777764,-0.36422813,-0.06729201,-0.12664555,-0.8564529,-17.1,-15.13125,-18.150002
1763129324317,2.152344,4.0181475,11.185847,-2.0833542,1.2777764,-0.36422813,-0.06729201,-0.12664555,-0.8564529,-18.768751,-18.243752,-17.8125
1763129324321,1.7018951,2.5381866,11.733206,-2.0833542,1.2777764,-0.36422813,-0.06729201,-0.12664555,-0.8564529,-18.768751,-18.243752,-17.8125
1763129324322,1.7018951,2.5381866,11.733206,-2.0833542,1.2777764,-0.36422813,-0.07447127,-0.11730423,-0.8576837,-18.768751,-18.243752,-17.8125
1763129324324,1.7018951,2.5381866,11.733206,-1.2313507,-0.1915061,-0.1631009,-0.07447127,-0.11730423,-0.8576837,-18.768751,-18.243752,-17.8125
1763129324339,1.7018951,2.5381866,11.733206,-1.2313507,-0.1915061,-0.1631009,-0.07447127,-0.11730423,-0.8576837,-19.44375,-18.075,-17.2875
1763129324342,1.6971095,1.2711871,12.214163,-1.2313507,-0.1915061,-0.1631009,-0.07447127,-0.11730423,-0.8576837,-19.44375,-18.075,-17.2875
1763129324344,1.6971095,1.2711871,12.214163,-1.2313507,-0.1915061,-0.1631009,-0.07895365,-0.11938877,-0.85546607,-19.44375,-18.075,-17.2875
1763129324345,1.6971095,1.2711871,12.214163,-0.052381653,-0.5007564,0.24449863,-0.07895365,-0.11938877,-0.85546607,-19.44375,-18.075,-17.2875
1763129324358,1.6971095,1.2711871,12.214163,-0.052381653,-0.5007564,0.24449863,-0.07895365,-0.11938877,-0.85546607,-17.75625,-16.725,-16.25625
1763129324362,1.9322042,1.4033905,12.597613,-0.052381653,-0.5007564,0.24449863,-0.07895365,-0.11938877,-0.85546607,-17.75625,-16.725,-16.25625
1763129324363,1.9322042,1.4033905,12.597613,1.1224641,0.37858346,0.729678,-0.07895365,-0.11938877,-0.85546607,-17.75625,-16.725,-16.25625
1763129324366,1.9322042,1.4033905,12.597613,1.1224641,0.37858346,0.729678,-0.07033574,-0.12656987,-0.8504342,-17.75625,-16.725,-16.25625
1763129324377,1.9322042,1.4033905,12.597613,1.1224641,0.37858346,0.729678,-0.07033574,-0.12656987,-0.8504342,-19.725,-19.44375,-17.925001
1763129324384,1.9322042,1.4033905,12.597613,1.9272784,1.3180934,0.90957767,-0.07033574,-0.12656987,-0.8504342,-19.725,-19.44375,-17.925001
1763129324385,1.9322042,1.4033905,12.597613,1.9272784,1.3180934,0.90957767,-0.049477756,-0.13570373,-0.8439176,-19.725,-19.44375,-17.925001
1763129324391,2.4634109,2.0117657,11.185249,1.9272784,1.3180934,0.90957767,-0.049477756,-0.13570373,-0.8439176,-19.725,-19.44375,-17.925001
1763129324398,2.4634109,2.0117657,11.185249,1.9272784,1.3180934,0.90957767,-0.049477756,-0.13570373,-0.8439176,-18.075,-18.712502,-15.806251
1763129324404,2.4634109,2.0117657,11.185249,2.3486223,1.7024802,0.80832684,-0.049477756,-0.13570373,-0.8439176,-18.075,-18.712502,-15.806251
1763129324405,2.4634109,2.0117657,11.185249,2.3486223,1.7024802,0.80832684,-0.022987206,-0.14666629,-0.83691657,-18.075,-18.712502,-15.806251
1763129324405,1.9334008,2.1134605,9.808778,2.3486223,1.7024802,0.80832684,-0.022987206,-0.14666629,-0.83691657,-18.075,-18.712502,-15.806251
1763129324418,1.9334008,2.1134605,9.808778,2.3486223,1.7024802,0.80832684,-0.022987206,-0.14666629,-0.83691657,-17.8875,-19.143751,-15.4875
1763129324426,1.9334008,2.1134605,9.808778,2.0741913,1.6609414,0.64094985,-0.022987206,-0.14666629,-0.83691657,-17.8875,-19.143751,-15.4875
1763129324428,1.0624132,1.9680966,8.019546,2.0741913,1.6609414,0.64094985,-0.022987206,-0.14666629,-0.83691657,-17.8875,-19.143751,-15.4875
1763129324438,1.0624132,1.9680966,8.019546,2.0741913,1.6609414,0.64094985,0.0018778171,-0.15539841,-0.8305065,-17.8875,-19.143751,-15.4875
1763129324439,1.0624132,1.9680966,8.019546,2.0741913,1.6609414,0.64094985,0.0018778171,-0.15539841,-0.8305065,-13.687501,-18.69375,-18.768751
1763129324447,1.0624132,1.9680966,8.019546,1.0784818,1.4784455,0.47800168,0.0018778171,-0.15539841,-0.8305065,-13.687501,-18.69375,-18.768751
1763129324448,0.4534399,1.0803595,7.433902,1.0784818,1.4784455,0.47800168,0.0018778171,-0.15539841,-0.8305065,-13.687501,-18.69375,-18.768751
1763129324458,0.4534399,1.0803595,7.433902,1.0784818,1.4784455,0.47800168,0.019951778,-0.156392,-0.8260116,-13.687501,-18.69375,-18.768751
1763129324459,0.4534399,1.0803595,7.433902,1.0784818,1.4784455,0.47800168,0.019951778,-0.156392,-0.8260116,-12.95625,-19.03125,-22.237501
1763129324468,0.4534399,1.0803595,7.433902,0.19440772,1.0151045,0.33139414,0.019951778,-0.156392,-0.8260116,-12.95625,-19.03125,-22.237501
1763129324469,0.35234314,0.95832545,7.8837523,0.19440772,1.0151045,0.33139414,0.019951778,-0.156392,-0.8260116,-12.95625,-19.03125,-22.237501
1763129324477,0.35234314,0.95832545,7.8837523,0.19440772,1.0151045,0.33139414,0.029145474,-0.1521024,-0.8239438,-12.95625,-19.03125,-22.237501
1763129324478,0.35234314,0.95832545,7.8837523,0.19440772,1.0151045,0.33139414,0.029145474,-0.1521024,-0.8239438,-12.13125,-17.212502,-20.0625
1763129324488,0.35234314,0.95832545,7.8837523,-0.0050396346,0.2244928,0.26160285,0.029145474,-0.1521024,-0.8239438,-12.13125,-17.212502,-20.0625
1763129324489,0.9828519,1.5332011,8.868998,-0.0050396346,0.2244928,0.26160285,0.029145474,-0.1521024,-0.8239438,-12.13125,-17.212502,-20.0625
1763129324500,0.9828519,1.5332011,8.868998,-0.0050396346,0.2244928,0.26160285,0.030454665,-0.15052393,-0.82287544,-12.13125,-17.212502,-20.0625
1763129324501,0.9828519,1.5332011,8.868998,-0.0050396346,0.2244928,0.26160285,0.030454665,-0.15052393,-0.82287544,-11.64375,-17.75625,-20.98125
1763129324510,0.9828519,1.5332011,8.868998,0.30726498,-0.59269154,0.14156792,0.030454665,-0.15052393,-0.82287544,-11.64375,-17.75625,-20.98125
1763129324511,1.6474584,1.7862421,9.195019,0.30726498,-0.59269154,0.14156792,0.030454665,-0.15052393,-0.82287544,-11.64375,-17.75625,-20.98125
1763129324518,1.6474584,1.7862421,9.195019,0.30726498,-0.59269154,0.14156792,0.026641939,-0.15638699,-0.82220095,-11.64375,-17.75625,-20.98125
1763129324519,1.6474584,1.7862421,9.195019,0.30726498,-0.59269154,0.14156792,0.026641939,-0.15638699,-0.82220095,-14.55,-19.6875,-19.5
1763129324531,1.6689938,2.225325,9.135797,0.30726498,-0.59269154,0.14156792,0.026641939,-0.15638699,-0.82220095,-14.55,-19.6875,-19.5
1763129324532,1.6689938,2.225325,9.135797,0.7451023,-1.0716095,0.012522728,0.026641939,-0.15638699,-0.82220095,-14.55,-19.6875,-19.5
1763129324537,1.6689938,2.225325,9.135797,0.7451023,-1.0716095,0.012522728,0.021293182,-0.1687718,-0.8216395,-14.55,-19.6875,-19.5
1763129324539,1.6689938,2.225325,9.135797,0.7451023,-1.0716095,0.012522728,0.021293182,-0.1687718,-0.8216395,-13.406251,-18.7875,-19.875
1763129324552,1.6689938,2.225325,9.135797,1.1250602,-1.0997093,-0.06902772,0.021293182,-0.1687718,-0.8216395,-13.406251,-18.7875,-19.875
1763129324553,1.5726827,2.7870402,9.462418,1.1250602,-1.0997093,-0.06902772,0.021293182,-0.1687718,-0.8216395,-13.406251,-18.7875,-19.875
1763129324557,1.5726827,2.7870402,9.462418,1.1250602,-1.0997093,-0.06902772,0.018096574,-0.184543,-0.8205616,-13.406251,-18.7875,-19.875
1763129324558,1.5726827,2.7870402,9.462418,1.1250602,-1.0997093,-0.06902772,0.018096574,-0.184543,-0.8205616,-14.175,-19.612501,-18.975
1763129324575,1.5726827,2.7870402,9.462418,1.3046545,-0.6948587,-0.16172644,0.018096574,-0.184543,-0.8205616,-14.175,-19.612501,-18.975
1763129324576,1.7150556,3.5306098,9.1681,1.3046545,-0.6948587,-0.16172644,0.018096574,-0.184543,-0.8205616,-14.175,-19.612501,-18.975
1763129324579,1.7150556,3.5306098,9.1681,1.3046545,-0.6948587,-0.16172644,0.01968881,-0.19948548,-0.81926036,-14.175,-19.612501,-18.975
1763129324580,1.7150556,3.5306098,9.1681,1.3046545,-0.6948587,-0.16172644,0.01968881,-0.19948548,-0.81926036,-14.3625,-19.96875,-19.6875
1763129324594,1.7150556,3.5306098,9.1681,1.2576178,-0.67286754,-0.2159407,0.01968881,-0.19948548,-0.81926036,-14.3625,-19.96875,-19.6875
1763129324595,1.4817554,3.8207395,8.684152,1.2576178,-0.67286754,-0.2159407,0.01968881,-0.19948548,-0.81926036,-14.3625,-19.96875,-19.6875
1763129324600,1.4817554,3.8207395,8.684152,1.2576178,-0.67286754,-0.2159407,0.021446232,-0.21395086,-0.8179518,-14.3625,-19.96875,-19.6875
1763129324601,1.4817554,3.8207395,8.684152,1.2576178,-0.67286754,-0.2159407,0.021446232,-0.21395086,-0.8179518,-15.075001,-19.5,-19.875
1763129324615,1.477568,3.4743786,8.053044,1.2576178,-0.67286754,-0.2159407,0.021446232,-0.21395086,-0.8179518,-15.075001,-19.5,-19.875
1763129324619,1.477568,3.4743786,8.053044,1.2576178,-0.67286754,-0.2159407,0.018400624,-0.22940117,-0.81699014,-15.075001,-19.5,-19.875
1763129324620,1.477568,3.4743786,8.053044,1.2576178,-0.67286754,-0.2159407,0.018400624,-0.22940117,-0.81699014,-16.143751,-22.48125,-19.3875
1763129324621,1.477568,3.4743786,8.053044,1.0749693,-1.1404846,-0.24663666,0.018400624,-0.22940117,-0.81699014,-16.143751,-22.48125,-19.3875
1763129324636,1.477568,3.4743786,8.053044,0.69195706,-1.4454588,-0.24740024,0.018400624,-0.22940117,-0.81699014,-16.143751,-22.48125,-19.3875
1763129324637,2.1774685,3.2243285,7.774879,0.69195706,-1.4454588,-0.24740024,0.018400624,-0.22940117,-0.81699014,-16.143751,-22.48125,-19.3875
1763129324638,2.1774685,3.2243285,7.774879,0.69195706,-1.4454588,-0.24740024,0.010574245,-0.24314015,-0.81686753,-16.143751,-22.48125,-19.3875
1763129324639,2.1774685,3.2243285,7.774879,0.69195706,-1.4454588,-0.24740024,0.010574245,-0.24314015,-0.81686753,-16.10625,-21.0375,-20.53125
1763129324658,2.1774685,3.2243285,7.774879,0.69195706,-1.4454588,-0.24740024,0.0016455209,-0.25069743,-0.8177785,-16.10625,-21.0375,-20.53125
1763129324659,2.1774685,3.2243285,7.774879,0.14278965,-1.1783582,-0.1915061,0.0016455209,-0.25069743,-0.8177785,-16.10625,-21.0375,-20.53125
1763129324660,2.1774685,3.2243285,7.774879,0.14278965,-1.1783582,-0.1915061,0.0016455209,-0.25069743,-0.8177785,-16.987501,-21.225,-18.91875
1763129324661,2.934797,3.2973096,7.618747,0.14278965,-1.1783582,-0.1915061,0.0016455209,-0.25069743,-0.8177785,-16.987501,-21.225,-18.91875
1763129324678,2.934797,3.2973096,7.618747,0.14278965,-1.1783582,-0.1915061,-0.006892934,-0.25188684,-0.8191612,-16.987501,-21.225,-18.91875
1763129324679,2.934797,3.2973096,7.618747,-0.3460549,-0.7638864,-0.057115857,-0.006892934,-0.25188684,-0.8191612,-16.987501,-21.225,-18.91875
1763129324680,3.3816566,3.5270207,8.129615,-0.3460549,-0.7638864,-0.057115857,-0.006892934,-0.25188684,-0.8191612,-16.987501,-21.225,-18.91875
1763129324683,3.3816566,3.5270207,8.129615,-0.3460549,-0.7638864,-0.057115857,-0.006892934,-0.25188684,-0.8191612,-17.7,-23.15625,-18.31875
1763129324698,3.3816566,3.5270207,8.129615,-0.3460549,-0.7638864,-0.057115857,-0.006892934,-0.25188684,-0.8191612,-18.825,-21.65625,-19.650002
1763129324699,3.3816566,3.5270207,8.129615,-0.3460549,-0.7638864,-0.057115857,-0.0152810775,-0.25037003,-0.8202628,-18.825,-21.65625,-19.650002
1763129324700,3.6580276,3.342175,8.715857,-0.3460549,-0.7638864,-0.057115857,-0.0152810775,-0.25037003,-0.8202628,-18.825,-21.65625,-19.650002
1763129324703,3.6580276,3.342175,8.715857,-0.54351693,-0.57680905,0.08002329,-0.0152810775,-0.25037003,-0.8202628,-18.825,-21.65625,-19.650002
1763129324717,3.6580276,3.342175,8.715857,-0.54351693,-0.57680905,0.08002329,-0.0152810775,-0.25037003,-0.8202628,-18.675001,-22.725,-17.5125
1763129324720,3.6580276,3.342175,8.715857,-0.54351693,-0.57680905,0.08002329,-0.023399627,-0.24976917,-0.82110715,-18.675001,-22.725,-17.5125
1763129324722,3.6580276,3.342175,8.715857,-0.43799004,-0.5968149,0.08949169,-0.023399627,-0.24976917,-0.82110715,-18.675001,-22.725,-17.5125
1763129324723,4.0067816,3.1932218,9.022736,-0.43799004,-0.5968149,0.08949169,-0.023399627,-0.24976917,-0.82110715,-18.675001,-22.725,-17.5125
1763129324738,4.0067816,3.1932218,9.022736,-0.43799004,-0.5968149,0.08949169,-0.023399627,-0.24976917,-0.82110715,-18.0,-20.643751,-16.800001
1763129324742,4.0067816,3.1932218,9.022736,-0.20341797,-0.5833759,-0.058337588,-0.023399627,-0.24976917,-0.82110715,-18.0,-20.643751,-16.800001
1763129324743,4.0067816,3.1932218,9.022736,-0.20341797,-0.5833759,-0.058337588,-0.02987256,-0.25109184,-0.8222038,-18.0,-20.643751,-16.800001
1763129324744,4.1318064,3.2847474,9.014361,-0.20341797,-0.5833759,-0.058337588,-0.02987256,-0.25109184,-0.8222038,-18.0,-20.643751,-16.800001
1763129324759,4.1318064,3.2847474,9.014361,-0.20341797,-0.5833759,-0.058337588,-0.02987256,-0.25109184,-0.8222038,-19.40625,-21.300001,-18.09375
1763129324762,4.1318064,3.2847474,9.014361,-0.20341797,-0.5833759,-0.058337588,-0.033825018,-0.25349414,-0.82364774,-19.40625,-21.300001,-18.09375
1763129324764,4.1318064,3.2847474,9.014361,-0.009315688,-0.46242464,-0.22204934,-0.033825018,-0.25349414,-0.82364774,-19.40625,-21.300001,-18.09375
1763129324766,3.7890346,3.3822548,8.904291,-0.009315688,-0.46242464,-0.22204934,-0.033825018,-0.25349414,-0.82364774,-19.40625,-21.300001,-18.09375
1763129324779,3.7890346,3.3822548,8.904291,-0.009315688,-0.46242464,-0.22204934,-0.033825018,-0.25349414,-0.82364774,-18.91875,-20.38125,-17.90625
1763129324783,3.7890346,3.3822548,8.904291,0.046883874,-0.34559676,-0.29367325,-0.033825018,-0.25349414,-0.82364774,-18.91875,-20.38125,-17.90625
1763129324784,3.7890346,3.3822548,8.904291,0.046883874,-0.34559676,-0.29367325,-0.036135104,-0.25576374,-0.825245,-18.91875,-20.38125,-17.90625
1763129324785,3.306881,3.606582,8.656036,0.046883874,-0.34559676,-0.29367325,-0.036135104,-0.25576374,-0.825245,-18.91875,-20.38125,-17.90625
1763129324797,3.306881,3.606582,8.656036,0.046883874,-0.34559676,-0.29367325,-0.036135104,-0.25576374,-0.825245,-20.25,-21.65625,-18.4125
1763129324803,3.306881,3.606582,8.656036,0.046883874,-0.34559676,-0.29367325,-0.038160633,-0.2572768,-0.82685024,-20.25,-21.65625,-18.4125
1763129324804,3.306881,3.606582,8.656036,-0.016493348,-0.30237806,-0.29749113,-0.038160633,-0.2572768,-0.82685024,-20.25,-21.65625,-18.4125
1763129324805,2.9252257,3.7196429,8.370093,-0.016493348,-0.30237806,-0.29749113,-0.038160633,-0.2572768,-0.82685024,-20.25,-21.65625,-18.4125
1763129324819,2.9252257,3.7196429,8.370093,-0.016493348,-0.30237806,-0.29749113,-0.038160633,-0.2572768,-0.82685024,-19.650002,-22.1625,-18.243752
1763129324825,2.9252257,3.7196429,8.370093,-0.10613775,-0.2677115,-0.22327107,-0.038160633,-0.2572768,-0.82685024,-19.650002,-22.1625,-18.243752
1763129324826,2.9252257,3.7196429,8.370093,-0.10613775,-0.2677115,-0.22327107,-0.04038065,-0.2578191,-0.8281734,-19.650002,-22.1625,-18.243752
1763129324827,2.833102,3.7645082,8.409575,-0.10613775,-0.2677115,-0.22327107,-0.04038065,-0.2578191,-0.8281734,-19.650002,-22.1625,-18.243752
1763129324838,2.833102,3.7645082,8.409575,-0.10613775,-0.2677115,-0.22327107,-0.04038065,-0.2578191,-0.8281734,-19.800001,-21.375,-17.1375
1763129324845,2.833102,3.7645082,8.409575,-0.08872811,-0.23930627,-0.17562363,-0.04038065,-0.2578191,-0.8281734,-19.800001,-21.375,-17.1375
1763129324847,3.083152,3.81057,8.508878,-0.08872811,-0.23930627,-0.17562363,-0.04038065,-0.2578191,-0.8281734,-19.800001,-21.375,-17.1375
1763129324859,3.083152,3.81057,8.508878,-0.08872811,-0.23930627,-0.17562363,-0.04234025,-0.25833577,-0.82917243,-19.800001,-21.375,-17.1375
1763129324860,3.083152,3.81057,8.508878,-0.08872811,-0.23930627,-0.17562363,-0.04234025,-0.25833577,-0.82917243,-21.28125,-23.962502,-17.34375
1763129324867,3.083152,3.81057,8.508878,0.0010690134,-0.21471897,-0.19715661,-0.04234025,-0.25833577,-0.82917243,-21.28125,-23.962502,-17.34375
1763129324867,3.0819557,3.9302113,8.449655,0.0010690134,-0.21471897,-0.19715661,-0.04234025,-0.25833577,-0.82917243,-21.28125,-23.962502,-17.34375
1763129324877,3.0819557,3.9302113,8.449655,0.0010690134,-0.21471897,-0.19715661,-0.04362553,-0.259527,-0.83007646,-21.28125,-23.962502,-17.34375
1763129324878,3.0819557,3.9302113,8.449655,0.0010690134,-0.21471897,-0.19715661,-0.04362553,-0.259527,-0.83007646,-19.21875,-20.925001,-18.13125
1763129324887,2.8456643,3.9756749,8.242676,0.0010690134,-0.21471897,-0.19715661,-0.04362553,-0.259527,-0.83007646,-19.21875,-20.925001,-18.13125
1763129324891,2.8456643,3.9756749,8.242676,0.04367683,-0.15286891,-0.18829907,-0.04362553,-0.259527,-0.83007646,-19.21875,-20.925001,-18.13125
1763129324899,2.8456643,3.9756749,8.242676,0.04367683,-0.15286891,-0.18829907,-0.044140328,-0.2607904,-0.8307992,-19.21875,-20.925001,-18.13125
1763129324900,2.8456643,3.9756749,8.242676,0.04367683,-0.15286891,-0.18829907,-0.044140328,-0.2607904,-0.8307992,-18.50625,-19.95,-16.66875
1763129324909,2.8456643,3.9756749,8.242676,0.007177661,-0.124310985,-0.103236146,-0.044140328,-0.2607904,-0.8307992,-18.50625,-19.95,-16.66875
1763129324910,2.8175488,3.9768713,8.012965,0.007177661,-0.124310985,-0.103236146,-0.044140328,-0.2607904,-0.8307992,-18.50625,-19.95,-16.66875
1763129324918,2.8175488,3.9768713,8.012965,0.007177661,-0.124310985,-0.103236146,-0.0447296,-0.2615617,-0.8311236,-18.50625,-19.95,-16.66875
1763129324919,2.8175488,3.9768713,8.012965,0.007177661,-0.124310985,-0.103236146,-0.0447296,-0.2615617,-0.8311236,-21.1875,-22.331251,-16.6875
1763129324930,2.8175488,3.9768713,8.012965,-0.06139191,-0.0858265,0.0059559317,-0.0447296,-0.2615617,-0.8311236,-21.1875,-22.331251,-16.6875
1763129324931,2.9736803,3.8350966,8.082955,-0.06139191,-0.0858265,0.0059559317,-0.0447296,-0.2615617,-0.8311236,-21.1875,-22.331251,-16.6875
1763129324938,2.9736803,3.8350966,8.082955,-0.06139191,-0.0858265,0.0059559317,-0.0447296,-0.2615617,-0.8311236,-21.056252,-23.1,-16.893751
1763129324940,2.9736803,3.8350966,8.082955,-0.06139191,-0.0858265,0.0059559317,-0.045615308,-0.26151487,-0.83105963,-21.056252,-23.1,-16.893751
1763129324951,2.9736803,3.8350966,8.082955,-0.082161315,-0.04978548,0.04459313,-0.045615308,-0.26151487,-0.83105963,-21.056252,-23.1,-16.893751
1763129324952,3.2476585,3.8009987,8.257032,-0.082161315,-0.04978548,0.04459313,-0.045615308,-0.26151487,-0.83105963,-21.056252,-23.1,-16.893751
1763129324958,3.2476585,3.8009987,8.257032,-0.082161315,-0.04978548,0.04459313,-0.046485588,-0.26105896,-0.83094424,-21.056252,-23.1,-16.893751
1763129324959,3.2476585,3.8009987,8.257032,-0.082161315,-0.04978548,0.04459313,-0.046485588,-0.26105896,-0.83094424,-20.38125,-21.975,-14.56875
1763129324972,3.2476585,3.8009987,8.257032,-0.07467822,-0.0042760535,0.010079269,-0.046485588,-0.26105896,-0.83094424,-20.38125,-21.975,-14.56875
1763129324973,3.3720853,3.757928,8.363513,-0.07467822,-0.0042760535,0.010079269,-0.046485588,-0.26105896,-0.83094424,-20.38125,-21.975,-14.56875
1763129324978,3.3720853,3.757928,8.363513,-0.07467822,-0.0042760535,0.010079269,-0.04699469,-0.26043567,-0.8312051,-20.38125,-21.975,-14.56875
1763129324979,3.3720853,3.757928,8.363513,-0.07467822,-0.0042760535,0.010079269,-0.04699469,-0.26043567,-0.8312051,-18.84375,-20.98125,-16.35
1763129324993,3.3720853,3.757928,8.363513,-0.058795735,0.004734202,-0.008704823,-0.04699469,-0.26043567,-0.8312051,-18.84375,-20.98125,-16.35
1763129324994,3.4133615,3.769892,8.422736,-0.058795735,0.004734202,-0.008704823,-0.04699469,-0.26043567,-0.8312051,-18.84375,-20.98125,-16.35
1763129324998,3.4133615,3.769892,8.422736,-0.058795735,0.004734202,-0.008704823,-0.047366668,-0.2598991,-0.8316063,-18.84375,-20.98125,-16.35
1763129324999,3.4133615,3.769892,8.422736,-0.058795735,0.004734202,-0.008704823,-0.047366668,-0.2598991,-0.8316063,-20.94375,-22.125,-17.56875
1763129325014,3.4133615,3.769892,8.422736,-0.041691523,-0.0025961753,-0.016798781,-0.047366668,-0.2598991,-0.8316063,-20.94375,-22.125,-17.56875
1763129325015,3.4043884,3.7471602,8.4705925,-0.041691523,-0.0025961753,-0.016798781,-0.047366668,-0.2598991,-0.8316063,-20.94375,-22.125,-17.56875
1763129325019,3.4043884,3.7471602,8.4705925,-0.041691523,-0.0025961753,-0.016798781,-0.047676202,-0.2595578,-0.8319569,-20.94375,-22.125,-17.56875
1763129325020,3.4043884,3.7471602,8.4705925,-0.041691523,-0.0025961753,-0.016798781,-0.047676202,-0.2595578,-0.8319569,-19.800001,-22.96875,-15.95625
1763129325035,3.4043884,3.7471602,8.4705925,-0.0015271619,0.01847866,-0.0377209,-0.047676202,-0.2595578,-0.8319569,-19.800001,-22.96875,-15.95625
1763129325036,3.4187453,3.6861434,8.520244,-0.0015271619,0.01847866,-0.0377209,-0.047676202,-0.2595578,-0.8319569,-19.800001,-22.96875,-15.95625
1763129325037,3.4187453,3.6861434,8.520244,-0.0015271619,0.01847866,-0.0377209,-0.047571,-0.25945285,-0.83237416,-19.800001,-22.96875,-15.95625
1763129325038,3.4187453,3.6861434,8.520244,-0.0015271619,0.01847866,-0.0377209,-0.047571,-0.25945285,-0.83237416,-19.6875,-21.993752,-17.400002
1763129325056,3.4187453,3.6861434,8.520244,0.032681264,0.03970621,-0.058795735,-0.047571,-0.25945285,-0.83237416,-19.6875,-21.993752,-17.400002
1763129325057,3.2656047,3.6819558,8.353942,0.032681264,0.03970621,-0.058795735,-0.047571,-0.25945285,-0.83237416,-19.6875,-21.993752,-17.400002
1763129325058,3.2656047,3.6819558,8.353942,0.032681264,0.03970621,-0.058795735,-0.047061834,-0.25953162,-0.8328176,-19.6875,-21.993752,-17.400002
1763129325060,3.2656047,3.6819558,8.353942,0.032681264,0.03970621,-0.058795735,-0.047061834,-0.25953162,-0.8328176,-20.925001,-22.275002,-16.63125
1763129325078,3.2656047,3.6819558,8.353942,0.01527162,0.0632245,-0.0481056,-0.047061834,-0.25953162,-0.8328176,-20.925001,-22.275002,-16.63125
1763129325079,3.2189445,3.734598,8.328219,0.01527162,0.0632245,-0.0481056,-0.047061834,-0.25953162,-0.8328176,-20.925001,-22.275002,-16.63125
1763129325080,3.2189445,3.734598,8.328219,0.01527162,0.0632245,-0.0481056,-0.046345558,-0.2593562,-0.8330883,-20.925001,-22.275002,-16.63125
1763129325081,3.2189445,3.734598,8.328219,0.01527162,0.0632245,-0.0481056,-0.046345558,-0.2593562,-0.8330883,-18.393751,-20.71875,-16.125
1763129325099,3.2189445,3.734598,8.328219,0.01527162,0.0632245,-0.0481056,-0.045678895,-0.25921157,-0.8333467,-18.393751,-20.71875,-16.125
1763129325100,3.2189445,3.734598,8.328219,0.01282816,0.055283263,-0.049938194,-0.045678895,-0.25921157,-0.8333467,-18.393751,-20.71875,-16.125
1763129325102,3.2189445,3.734598,8.328219,0.01282816,0.055283263,-0.049938194,-0.045678895,-0.25921157,-0.8333467,-19.050001,-21.35625,-16.3125
1763129325104,3.1842487,3.8093736,8.4197445,0.01282816,0.055283263,-0.049938194,-0.045678895,-0.25921157,-0.8333467,-19.050001,-21.35625,-16.3125
1763129325117,3.1842487,3.8093736,8.4197445,0.01282816,0.055283263,-0.049938194,-0.045678895,-0.25921157,-0.8333467,-19.275002,-20.475,-19.800001
1763129325118,3.1842487,3.8093736,8.4197445,0.0377209,0.011148282,-0.053450666,-0.045678895,-0.25921157,-0.8333467,-19.275002,-20.475,-19.800001
1763129325120,3.1842487,3.8093736,8.4197445,0.0377209,0.011148282,-0.053450666,-0.045297597,-0.2595006,-0.8336329,-19.275002,-20.475,-19.800001
1763129325121,3.0951161,3.8793638,8.567501,0.0377209,0.011148282,-0.053450666,-0.045297597,-0.2595006,-0.8336329,-19.275002,-20.475,-19.800001
1763129325137,3.0951161,3.8793638,8.567501,0.0377209,0.011148282,-0.053450666,-0.045297597,-0.2595006,-0.8336329,-23.025002,-24.35625,-16.3875
1763129325141,3.0951161,3.8793638,8.567501,0.08353576,-0.029168794,-0.04535671,-0.045297597,-0.2595006,-0.8336329,-23.025002,-24.35625,-16.3875
1763129325142,3.0951161,3.8793638,8.567501,0.08353576,-0.029168794,-0.04535671,-0.045024954,-0.2603727,-0.8337347,-23.025002,-24.35625,-16.3875
1763129325143,2.9252257,3.879962,8.588439,0.08353576,-0.029168794,-0.04535671,-0.045024954,-0.2603727,-0.8337347,-23.025002,-24.35625,-16.3875
1763129325158,2.9252257,3.879962,8.588439,0.08353576,-0.029168794,-0.04535671,-0.045024954,-0.2603727,-0.8337347,-20.306252,-22.143751,-17.53125
1763129325160,2.9252257,3.879962,8.588439,0.12018765,-0.041844238,-0.015729768,-0.045024954,-0.2603727,-0.8337347,-20.306252,-22.143751,-17.53125
1763129325160,2.9252257,3.879962,8.588439,0.12018765,-0.041844238,-0.015729768,-0.044700976,-0.26159334,-0.8335494,-20.306252,-22.143751,-17.53125
1763129325161,3.0358937,3.8590248,8.451449,0.12018765,-0.041844238,-0.015729768,-0.044700976,-0.26159334,-0.8335494,-20.306252,-22.143751,-17.53125
1763129325179,3.0358937,3.8590248,8.451449,0.12018765,-0.041844238,-0.015729768,-0.044700976,-0.26159334,-0.8335494,-27.187502,-23.6625,-9.76875
1763129325181,3.0358937,3.8590248,8.451449,0.12568542,-0.03573559,-0.004734202,-0.044700976,-0.26159334,-0.8335494,-27.187502,-23.6625,-9.76875
1763129325182,3.2285159,3.8057845,8.234301,0.12568542,-0.03573559,-0.004734202,-0.044700976,-0.26159334,-0.8335494,-27.187502,-23.6625,-9.76875
1763129325198,3.2285159,3.8057845,8.234301,0.12568542,-0.03573559,-0.004734202,-0.044700976,-0.26159334,-0.8335494,-23.306252,-22.95,-12.6
1763129325202,3.2285159,3.8057845,8.234301,0.10308343,-0.023823727,-0.027030766,-0.044700976,-0.26159334,-0.8335494,-23.306252,-22.95,-12.6
1763129325202,3.2285159,3.8057845,8.234301,0.10308343,-0.023823727,-0.027030766,-0.044076543,-0.26270267,-0.8332403,-23.306252,-22.95,-12.6
1763129325203,3.394219,3.798606,8.208578,0.10308343,-0.023823727,-0.027030766,-0.044076543,-0.26270267,-0.8332403,-23.306252,-22.95,-12.6
1763129325204,3.394219,3.798606,8.208578,0.10308343,-0.023823727,-0.027030766,-0.043869145,-0.263765,-0.8331795,-23.306252,-22.95,-12.6
1763129325217,3.394219,3.798606,8.208578,0.10308343,-0.023823727,-0.027030766,-0.043869145,-0.263765,-0.8331795,-25.500002,-24.562502,-11.00625
1763129325224,3.394219,3.798606,8.208578,0.085979216,-0.018936807,-0.067653276,-0.043869145,-0.263765,-0.8331795,-25.500002,-24.562502,-11.00625
1763129325224,3.394219,3.798606,8.208578,0.085979216,-0.018936807,-0.067653276,-0.04400504,-0.26474145,-0.8335861,-25.500002,-24.562502,-11.00625
1763129325226,3.3182468,3.8458643,8.248658,0.085979216,-0.018936807,-0.067653276,-0.04400504,-0.26474145,-0.8335861,-25.500002,-24.562502,-11.00625
1763129325237,3.3182468,3.8458643,8.248658,0.085979216,-0.018936807,-0.067653276,-0.04400504,-0.26474145,-0.8335861,-22.7625,-22.5,-11.793751
1763129325245,3.3182468,3.8458643,8.248658,0.072540194,-0.024281874,-0.07803798,-0.04400504,-0.26474145,-0.8335861,-22.7625,-22.5,-11.793751
1763129325245,3.3182468,3.8458643,8.248658,0.072540194,-0.024281874,-0.07803798,-0.043994695,-0.26558787,-0.8339613,-22.7625,-22.5,-11.793751
1763129325246,3.1507492,3.9254255,8.285149,0.072540194,-0.024281874,-0.07803798,-0.043994695,-0.26558787,-0.8339613,-22.7625,-22.5,-11.793751
1763129325258,3.1507492,3.9254255,8.285149,0.072540194,-0.024281874,-0.07803798,-0.043994695,-0.26558787,-0.8339613,-23.56875,-23.00625,-11.606251
1763129325266,3.1507492,3.9254255,8.285149,0.07147118,-0.025503604,-0.06826414,-0.043994695,-0.26558787,-0.8339613,-23.56875,-23.00625,-11.606251
1763129325266,3.1680973,3.9098723,8.242078,0.07147118,-0.025503604,-0.06826414,-0.043994695,-0.26558787,-0.8339613,-23.56875,-23.00625,-11.606251
1763129325278,3.1680973,3.9098723,8.242078,0.07147118,-0.025503604,-0.06826414,-0.04352837,-0.2663852,-0.83400065,-23.56875,-23.00625,-11.606251
1763129325279,3.1680973,3.9098723,8.242078,0.07147118,-0.025503604,-0.06826414,-0.04352837,-0.2663852,-0.83400065,-24.656252,-25.3875,-15.543751
1763129325286,3.1680973,3.9098723,8.242078,0.059101168,-0.027183482,-0.07147118,-0.04352837,-0.2663852,-0.83400065,-24.656252,-25.3875,-15.543751
1763129325286,3.2075787,3.9864426,8.135597,0.059101168,-0.027183482,-0.07147118,-0.04352837,-0.2663852,-0.83400065,-24.656252,-25.3875,-15.543751
1763129325299,3.2075787,3.9864426,8.135597,0.059101168,-0.027183482,-0.07147118,-0.043233544,-0.26708153,-0.8341554,-24.656252,-25.3875,-15.543751
1763129325300,3.2075787,3.9864426,8.135597,0.059101168,-0.027183482,-0.07147118,-0.043233544,-0.26708153,-0.8341554,-21.112501,-22.650002,-17.643751
1763129325307,3.2075787,3.9864426,8.135597,0.038026333,-0.013286309,-0.07498365,-0.043233544,-0.26708153,-0.8341554,-21.112501,-22.650002,-17.643751
1763129325308,3.1950164,3.9834516,8.09133,0.038026333,-0.013286309,-0.07498365,-0.043233544,-0.26708153,-0.8341554,-21.112501,-22.650002,-17.643751
1763129325317,3.1950164,3.9834516,8.09133,0.038026333,-0.013286309,-0.07498365,-0.042860787,-0.26773396,-0.834216,-21.112501,-22.650002,-17.643751
1763129325317,3.1950164,3.9834516,8.09133,0.038026333,-0.013286309,-0.07498365,-0.042860787,-0.26773396,-0.834216,-20.550001,-22.35,-16.331251
1763129325328,3.1950164,3.9834516,8.09133,0.009926553,-0.0030543238,-0.06887501,-0.042860787,-0.26773396,-0.834216,-20.550001,-22.35,-16.331251
1763129325329,3.0496526,4.0181475,8.162517,0.009926553,-0.0030543238,-0.06887501,-0.042860787,-0.26773396,-0.834216,-20.550001,-22.35,-16.331251
1763129325338,3.0496526,4.0181475,8.162517,0.009926553,-0.0030543238,-0.06887501,-0.042556234,-0.26809973,-0.83431894,-20.550001,-22.35,-16.331251
1763129325340,3.0496526,4.0181475,8.162517,0.009926553,-0.0030543238,-0.06887501,-0.042556234,-0.26809973,-0.83431894,-23.56875,-23.6625,-13.406251
1763129325350,3.0496526,4.0181475,8.162517,0.0050396346,-9.162972E-4,-0.04856375,-0.042556234,-0.26809973,-0.83431894,-23.56875,-23.6625,-13.406251
1763129325350,3.0640094,3.9864426,8.344969,0.0050396346,-9.162972E-4,-0.04856375,-0.042556234,-0.26809973,-0.83431894,-23.56875,-23.6625,-13.406251
1763129325358,3.0640094,3.9864426,8.344969,0.0050396346,-9.162972E-4,-0.04856375,-0.04195112,-0.26829624,-0.8341776,-23.56875,-23.6625,-13.406251
1763129325359,3.0640094,3.9864426,8.344969,0.0050396346,-9.162972E-4,-0.04856375,-0.04195112,-0.26829624,-0.8341776,-17.6625,-22.650002,-17.081251
1763129325370,3.0640094,3.9864426,8.344969,0.025503604,-0.009926553,-0.03848448,-0.04195112,-0.26829624,-0.8341776,-17.6625,-22.650002,-17.081251
1763129325371,3.0472596,3.9768713,8.365308,0.025503604,-0.009926553,-0.03848448,-0.04195112,-0.26829624,-0.8341776,-17.6625,-22.650002,-17.081251
1763129325378,3.0472596,3.9768713,8.365308,0.025503604,-0.009926553,-0.03848448,-0.04150621,-0.26849478,-0.8341725,-17.6625,-22.650002,-17.081251
1763129325379,3.0472596,3.9768713,8.365308,0.025503604,-0.009926553,-0.03848448,-0.04150621,-0.26849478,-0.8341725,-19.6875,-21.993752,-17.400002
1763129325392,3.0472596,3.9768713,8.365308,0.02535089,-0.03451386,-0.021380268,-0.04150621,-0.26849478,-0.8341725,-19.6875,-21.993752,-17.400002
1763129325393,3.1489546,4.0007997,8.322237,0.02535089,-0.03451386,-0.021380268,-0.04150621,-0.26849478,-0.8341725,-19.6875,-21.993752,-17.400002
1763129325398,3.1489546,4.0007997,8.322237,0.02535089,-0.03451386,-0.021380268,-0.04132709,-0.2687553,-0.83410764,-19.6875,-21.993752,-17.400002
1763129325399,3.1489546,4.0007997,8.322237,0.02535089,-0.03451386,-0.021380268,-0.04132709,-0.2687553,-0.83410764,-20.475,-24.2625,-17.325
1763129325413,3.1489546,4.0007997,8.322237,0.045814857,-0.031917684,-0.038331766,-0.04132709,-0.2687553,-0.83410764,-20.475,-24.2625,-17.325
1763129325414,3.257828,3.9690945,8.243873,0.045814857,-0.031917684,-0.038331766,-0.04132709,-0.2687553,-0.83410764,-20.475,-24.2625,-17.325
1763129325418,3.257828,3.9690945,8.243873,0.045814857,-0.031917684,-0.038331766,-0.041168667,-0.26930144,-0.8341172,-20.475,-24.2625,-17.325
1763129325419,3.257828,3.9690945,8.243873,0.045814857,-0.031917684,-0.038331766,-0.041168667,-0.26930144,-0.8341172,-21.712502,-24.54375,-17.15625
1763129325434,3.257828,3.9690945,8.243873,0.04138609,-0.013744458,-0.051923506,-0.041168667,-0.26930144,-0.8341172,-21.712502,-24.54375,-17.15625
1763129325435,3.182454,3.9864426,8.124829,0.04138609,-0.013744458,-0.051923506,-0.041168667,-0.26930144,-0.8341172,-21.712502,-24.54375,-17.15625
1763129325439,3.182454,3.9864426,8.124829,0.04138609,-0.013744458,-0.051923506,-0.041168667,-0.26930144,-0.8341172,-18.6375,-20.625,-17.1375
1763129325440,3.182454,3.9864426,8.124829,0.04138609,-0.013744458,-0.051923506,-0.041160166,-0.26979265,-0.8343728,-18.6375,-20.625,-17.1375
1763129325454,3.182454,3.9864426,8.124829,0.012675445,0.0018325944,-0.038026333,-0.041160166,-0.26979265,-0.8343728,-18.6375,-20.625,-17.1375
1763129325455,3.1680973,3.9942193,8.191829,0.012675445,0.0018325944,-0.038026333,-0.041160166,-0.26979265,-0.8343728,-18.6375,-20.625,-17.1375
1763129325458,3.1680973,3.9942193,8.191829,0.012675445,0.0018325944,-0.038026333,-0.040988762,-0.27003,-0.8344571,-18.6375,-20.625,-17.1375
1763129325459,3.1680973,3.9942193,8.191829,0.012675445,0.0018325944,-0.038026333,-0.040988762,-0.27003,-0.8344571,-20.25,-23.90625,-18.712502
1763129325476,3.1680973,3.9942193,8.191829,0.007941242,0.004734202,-0.026572619,-0.040988762,-0.27003,-0.8344571,-20.25,-23.90625,-18.712502
1763129325477,3.1663027,4.005585,8.328219,0.007941242,0.004734202,-0.026572619,-0.040988762,-0.27003,-0.8344571,-20.25,-23.90625,-18.712502
1763129325479,3.1663027,4.005585,8.328219,0.007941242,0.004734202,-0.026572619,-0.04082277,-0.27014238,-0.8345266,-20.25,-23.90625,-18.712502
1763129325481,3.1663027,4.005585,8.328219,0.007941242,0.004734202,-0.026572619,-0.04082277,-0.27014238,-0.8345266,-19.44375,-21.150002,-18.300001
1763129325498,3.1663027,4.005585,8.328219,0.018936807,-0.021074835,-0.029474225,-0.04082277,-0.27014238,-0.8345266,-19.44375,-21.150002,-18.300001
1763129325500,3.1663027,4.005585,8.328219,0.018936807,-0.021074835,-0.029474225,-0.040821698,-0.27036205,-0.8346518,-19.44375,-21.150002,-18.300001
1763129325502,3.1663027,4.005585,8.328219,0.018936807,-0.021074835,-0.029474225,-0.040821698,-0.27036205,-0.8346518,-20.1375,-22.425001,-17.1
1763129325503,3.1316066,4.0235314,8.365308,0.018936807,-0.021074835,-0.029474225,-0.040821698,-0.27036205,-0.8346518,-20.1375,-22.425001,-17.1
1763129325518,3.1316066,4.0235314,8.365308,0.041996952,-0.029474225,-0.04092794,-0.040821698,-0.27036205,-0.8346518,-20.1375,-22.425001,-17.1
1763129325520,3.1316066,4.0235314,8.365308,0.041996952,-0.029474225,-0.04092794,-0.040655553,-0.27078468,-0.83473974,-20.1375,-22.425001,-17.1
1763129325521,3.1633115,4.011567,8.2014,0.041996952,-0.029474225,-0.04092794,-0.040655553,-0.27078468,-0.83473974,-20.1375,-22.425001,-17.1
1763129325522,3.1633115,4.011567,8.2014,0.041996952,-0.029474225,-0.04092794,-0.040655553,-0.27078468,-0.83473974,-20.19375,-24.35625,-17.362501
1763129325539,3.1633115,4.011567,8.2014,0.041996952,-0.029474225,-0.04092794,-0.04046155,-0.2711307,-0.83485276,-20.19375,-24.35625,-17.362501
1763129325540,3.1633115,4.011567,8.2014,0.029016078,-0.008857539,-0.04382955,-0.04046155,-0.2711307,-0.83485276,-20.19375,-24.35625,-17.362501
1763129325542,3.1633115,4.011567,8.2014,0.029016078,-0.008857539,-0.04382955,-0.04046155,-0.2711307,-0.83485276,-18.056252,-20.175001,-18.75
1763129325543,3.1405797,4.098307,8.076375,0.029016078,-0.008857539,-0.04382955,-0.04046155,-0.2711307,-0.83485276,-18.056252,-20.175001,-18.75
1763129325557,3.1405797,4.098307,8.076375,0.029016078,-0.008857539,-0.04382955,-0.04046155,-0.2711307,-0.83485276,-17.71875,-20.8875,-16.2
1763129325560,3.0915267,4.0295134,8.113463,0.029016078,-0.008857539,-0.04382955,-0.04046155,-0.2711307,-0.83485276,-17.71875,-20.8875,-16.2
1763129325561,3.0915267,4.0295134,8.113463,-0.0019853106,0.0010690134,-0.021227552,-0.04046155,-0.2711307,-0.83485276,-17.71875,-20.8875,-16.2
1763129325562,3.0915267,4.0295134,8.113463,-0.0019853106,0.0010690134,-0.021227552,-0.040155724,-0.27136883,-0.8346381,-17.71875,-20.8875,-16.2
1763129325577,3.0915267,4.0295134,8.113463,-0.0019853106,0.0010690134,-0.021227552,-0.040155724,-0.27136883,-0.8346381,-21.075,-24.562502,-16.81875
1763129325583,3.0915267,4.0295134,8.113463,-0.01725693,-0.007941242,-0.009468404,-0.040155724,-0.27136883,-0.8346381,-21.075,-24.562502,-16.81875
1763129325584,3.0915267,4.0295134,8.113463,-0.01725693,-0.007941242,-0.009468404,-0.040080175,-0.2713511,-0.83454186,-21.075,-24.562502,-16.81875
1763129325586,3.097509,4.0498524,8.312666,-0.01725693,-0.007941242,-0.009468404,-0.040080175,-0.2713511,-0.83454186,-21.075,-24.562502,-16.81875
1763129325598,3.097509,4.0498524,8.312666,-0.01725693,-0.007941242,-0.009468404,-0.040080175,-0.2713511,-0.83454186,-20.1,-21.91875,-16.0125
1763129325601,3.097509,4.0498524,8.312666,-0.01725693,-0.007941242,-0.009468404,-0.039895378,-0.27142388,-0.8344637,-20.1,-21.91875,-16.0125
1763129325602,3.097509,4.0498524,8.312666,0.010690134,-0.008857539,-0.0059559317,-0.039895378,-0.27142388,-0.8344637,-20.1,-21.91875,-16.0125
1763129325604,3.1603205,4.061816,8.360522,0.010690134,-0.008857539,-0.0059559317,-0.039895378,-0.27142388,-0.8344637,-20.1,-21.91875,-16.0125
1763129325619,3.1603205,4.061816,8.360522,0.010690134,-0.008857539,-0.0059559317,-0.039895378,-0.27142388,-0.8344637,-18.4125,-22.0125,-17.75625
1763129325625,3.1603205,4.061816,8.360522,0.010690134,-0.008857539,-0.0059559317,-0.039836843,-0.27167806,-0.8344412,-18.4125,-22.0125,-17.75625
1763129325627,3.1603205,4.061816,8.360522,0.02611447,-0.01802051,-0.00962112,-0.039836843,-0.27167806,-0.8344412,-18.4125,-22.0125,-17.75625
1763129325628,3.0933216,4.0516467,8.290532,0.02611447,-0.01802051,-0.00962112,-0.039836843,-0.27167806,-0.8344412,-18.4125,-22.0125,-17.75625
1763129325637,3.0933216,4.0516467,8.290532,0.02611447,-0.01802051,-0.00962112,-0.039836843,-0.27167806,-0.8344412,-19.44375,-23.550001,-17.362501
1763129325643,3.0933216,4.0516467,8.290532,0.02611447,-0.01802051,-0.00962112,-0.039716072,-0.27201164,-0.83426535,-19.44375,-23.550001,-17.362501
1763129325644,3.0496526,4.034299,8.10808,0.02611447,-0.01802051,-0.00962112,-0.039716072,-0.27201164,-0.83426535,-19.44375,-23.550001,-17.362501
1763129325645,3.0496526,4.034299,8.10808,0.031154104,-0.025809037,6.108648E-4,-0.039716072,-0.27201164,-0.83426535,-19.44375,-23.550001,-17.362501
1763129325657,3.0496526,4.034299,8.10808,0.031154104,-0.025809037,6.108648E-4,-0.039716072,-0.27201164,-0.83426535,-18.69375,-22.575,-17.7
1763129325667,3.0496526,4.034299,8.10808,-0.009926553,-0.006261364,0.03252855,-0.039716072,-0.27201164,-0.83426535,-18.69375,-22.575,-17.7
1763129325668,3.0496526,4.034299,8.10808,-0.009926553,-0.006261364,0.03252855,-0.039619934,-0.2719975,-0.8339062,-18.69375,-22.575,-17.7
1763129325669,3.1710882,4.052245,8.139186,-0.009926553,-0.006261364,0.03252855,-0.039619934,-0.2719975,-0.8339062,-18.69375,-22.575,-17.7
1763129325678,3.1710882,4.052245,8.139186,-0.009926553,-0.006261364,0.03252855,-0.039619934,-0.2719975,-0.8339062,-20.625,-23.98125,-18.056252
1763129325685,3.1710882,4.052245,8.139186,-0.0140498895,-0.0058032153,0.03161225,-0.039619934,-0.2719975,-0.8339062,-20.625,-23.98125,-18.056252
1763129325686,3.306881,4.0181475,8.3348,-0.0140498895,-0.0058032153,0.03161225,-0.039619934,-0.2719975,-0.8339062,-20.625,-23.98125,-18.056252
1763129325700,3.306881,4.0181475,8.3348,-0.0140498895,-0.0058032153,0.03161225,-0.039766476,-0.27201286,-0.83366066,-20.625,-23.98125,-18.056252
1763129325702,3.306881,4.0181475,8.3348,-0.0140498895,-0.0058032153,0.03161225,-0.039766476,-0.27201286,-0.83366066,-17.1375,-20.4375,-16.893751
1763129325708,3.306881,4.0181475,8.3348,0.022601997,-0.016493348,-0.011453714,-0.039766476,-0.27201286,-0.83366066,-17.1375,-20.4375,-16.893751
1763129325709,3.3086755,4.001996,8.330014,0.022601997,-0.016493348,-0.011453714,-0.039766476,-0.27201286,-0.83366066,-17.1375,-20.4375,-16.893751
1763129325717,3.3086755,4.001996,8.330014,0.022601997,-0.016493348,-0.011453714,-0.039766476,-0.27201286,-0.83366066,-18.84375,-21.6375,-18.150002
1763129325718,3.3086755,4.001996,8.330014,0.022601997,-0.016493348,-0.011453714,-0.040112484,-0.27225518,-0.8338945,-18.84375,-21.6375,-18.150002
1763129325727,3.3086755,4.001996,8.330014,0.034666575,-0.020158539,-0.030237807,-0.040112484,-0.27225518,-0.8338945,-18.84375,-21.6375,-18.150002
1763129325728,3.1076784,4.025924,8.181659,0.034666575,-0.020158539,-0.030237807,-0.040112484,-0.27225518,-0.8338945,-18.84375,-21.6375,-18.150002
1763129325738,3.1076784,4.025924,8.181659,0.034666575,-0.020158539,-0.030237807,-0.04041787,-0.27259615,-0.8342342,-18.84375,-21.6375,-18.150002
1763129325739,3.1076784,4.025924,8.181659,0.034666575,-0.020158539,-0.030237807,-0.04041787,-0.27259615,-0.8342342,-19.725,-21.975,-15.281251
1763129325750,3.1076784,4.025924,8.181659,0.022143848,-0.016187917,-0.008399391,-0.04041787,-0.27259615,-0.8342342,-19.725,-21.975,-15.281251
1763129325751,3.1489546,4.0564327,8.129017,0.022143848,-0.016187917,-0.008399391,-0.04041787,-0.27259615,-0.8342342,-19.725,-21.975,-15.281251
1763129325758,3.1489546,4.0564327,8.129017,0.022143848,-0.016187917,-0.008399391,-0.040286455,-0.27285022,-0.8341369,-19.725,-21.975,-15.281251
1763129325759,3.1489546,4.0564327,8.129017,0.022143848,-0.016187917,-0.008399391,-0.040286455,-0.27285022,-0.8341369,-18.618752,-22.087502,-19.331251
1763129325769,3.1489546,4.0564327,8.129017,0.0016798781,-0.003970621,0.0056504994,-0.040286455,-0.27285022,-0.8341369,-18.618752,-22.087502,-19.331251
1763129325770,3.229114,4.078566,8.170293,0.0016798781,-0.003970621,0.0056504994,-0.040286455,-0.27285022,-0.8341369,-18.618752,-22.087502,-19.331251
1763129325778,3.229114,4.078566,8.170293,0.0016798781,-0.003970621,0.0056504994,-0.040212695,-0.2729713,-0.8339676,-18.618752,-22.087502,-19.331251
1763129325779,3.229114,4.078566,8.170293,0.0016798781,-0.003970621,0.0056504994,-0.040212695,-0.2729713,-0.8339676,-19.875,-24.112501,-16.425001
1763129325792,3.229114,4.078566,8.170293,0.009468404,-9.162972E-4,-0.014508039,-0.040212695,-0.2729713,-0.8339676,-19.875,-24.112501,-16.425001
1763129325794,3.3164523,4.0833516,8.215158,0.009468404,-9.162972E-4,-0.014508039,-0.040212695,-0.2729713,-0.8339676,-19.875,-24.112501,-16.425001
1763129325798,3.3164523,4.0833516,8.215158,0.009468404,-9.162972E-4,-0.014508039,-0.04016499,-0.27318463,-0.8339521,-19.875,-24.112501,-16.425001
1763129325798,3.3164523,4.0833516,8.215158,0.009468404,-9.162972E-4,-0.014508039,-0.04016499,-0.27318463,-0.8339521,-19.556252,-22.7625,-17.60625
1763129325811,3.3164523,4.0833516,8.215158,0.013897174,0.0033597562,-0.04214967,-0.04016499,-0.27318463,-0.8339521,-19.556252,-22.7625,-17.60625
1763129325812,3.132803,4.045665,8.1942215,0.013897174,0.0033597562,-0.04214967,-0.04016499,-0.27318463,-0.8339521,-19.556252,-22.7625,-17.60625
1763129325818,3.132803,4.045665,8.1942215,0.013897174,0.0033597562,-0.04214967,-0.040190067,-0.27343068,-0.8341933,-19.556252,-22.7625,-17.60625
1763129325819,3.132803,4.045665,8.1942215,0.013897174,0.0033597562,-0.04214967,-0.040190067,-0.27343068,-0.8341933,-17.79375,-21.88125,-17.325
1763129325833,3.132803,4.045665,8.1942215,-0.003970621,-0.025961753,-0.01970039,-0.040190067,-0.27343068,-0.8341933,-17.79375,-21.88125,-17.325
1763129325835,2.9682965,4.0677986,8.285747,-0.003970621,-0.025961753,-0.01970039,-0.040190067,-0.27343068,-0.8341933,-17.79375,-21.88125,-17.325
1763129325839,2.9682965,4.0677986,8.285747,-0.003970621,-0.025961753,-0.01970039,-0.040190067,-0.27343068,-0.8341933,-19.03125,-22.0125,-18.112501
1763129325840,2.9682965,4.0677986,8.285747,-0.003970621,-0.025961753,-0.01970039,-0.040278073,-0.2735157,-0.8342408,-19.03125,-22.0125,-18.112501
1763129325853,2.9682965,4.0677986,8.285747,0.0025961753,-0.027947064,0.0042760535,-0.040278073,-0.2735157,-0.8342408,-19.03125,-22.0125,-18.112501
1763129325854,3.1441689,4.0965123,8.3348,0.0025961753,-0.027947064,0.0042760535,-0.040278073,-0.2735157,-0.8342408,-19.03125,-22.0125,-18.112501
1763129325859,3.1441689,4.0965123,8.3348,0.0025961753,-0.027947064,0.0042760535,-0.040278073,-0.2735157,-0.8342408,-19.875,-22.518751,-16.40625
1763129325860,3.1441689,4.0965123,8.3348,0.0025961753,-0.027947064,0.0042760535,-0.04001472,-0.27351102,-0.83399713,-19.875,-22.518751,-16.40625
1763129325875,3.1890345,4.0833516,8.178668,0.0025961753,-0.027947064,0.0042760535,-0.04001472,-0.27351102,-0.83399713,-19.875,-22.518751,-16.40625
1763129325876,3.1890345,4.0833516,8.178668,0.027794348,-0.030390523,-0.002290743,-0.04001472,-0.27351102,-0.83399713,-19.875,-22.518751,-16.40625
1763129325878,3.1890345,4.0833516,8.178668,0.027794348,-0.030390523,-0.002290743,-0.03998449,-0.27382603,-0.8338784,-19.875,-22.518751,-16.40625
1763129325880,3.1890345,4.0833516,8.178668,0.027794348,-0.030390523,-0.002290743,-0.03998449,-0.27382603,-0.8338784,-19.462502,-21.7875,-17.98125
1763129325895,3.1890345,4.0833516,8.178668,0.022601997,-0.030237807,-0.006261364,-0.03998449,-0.27382603,-0.8338784,-19.462502,-21.7875,-17.98125
1763129325901,3.1980073,4.0869412,8.049456,0.022601997,-0.030237807,-0.006261364,-0.03998449,-0.27382603,-0.8338784,-19.462502,-21.7875,-17.98125
1763129325902,3.1980073,4.0869412,8.049456,0.022601997,-0.030237807,-0.006261364,-0.04015244,-0.2742234,-0.83390385,-19.462502,-21.7875,-17.98125
1763129325903,3.1980073,4.0869412,8.049456,0.022601997,-0.030237807,-0.006261364,-0.04015244,-0.2742234,-0.83390385,-18.393751,-20.71875,-16.125
1763129325916,3.1980073,4.0869412,8.049456,-0.0042760535,-0.010079269,-0.0029016077,-0.04015244,-0.2742234,-0.83390385,-18.393751,-20.71875,-16.125
1763129325917,3.1950164,4.0791645,8.033902,-0.0042760535,-0.010079269,-0.0029016077,-0.04015244,-0.2742234,-0.83390385,-18.393751,-20.71875,-16.125
1763129325919,3.1950164,4.0791645,8.033902,-0.0042760535,-0.010079269,-0.0029016077,-0.040197168,-0.27442136,-0.8337651,-18.393751,-20.71875,-16.125
1763129325921,3.1950164,4.0791645,8.033902,-0.0042760535,-0.010079269,-0.0029016077,-0.040197168,-0.27442136,-0.8337651,-19.706251,-21.993752,-16.03125
1763129325939,3.1950164,4.0791645,8.033902,-0.033597562,0.0025961753,0.0140498895,-0.040197168,-0.27442136,-0.8337651,-19.706251,-21.993752,-16.03125
1763129325940,3.1950164,4.0791645,8.033902,-0.033597562,0.0025961753,0.0140498895,-0.04031897,-0.27429938,-0.8336219,-19.706251,-21.993752,-16.03125
1763129325941,3.1950164,4.0791645,8.033902,-0.033597562,0.0025961753,0.0140498895,-0.04031897,-0.27429938,-0.8336219,-19.425001,-23.550001,-18.112501
1763129325942,3.1441689,4.074379,8.237292,-0.033597562,0.0025961753,0.0140498895,-0.04031897,-0.27429938,-0.8336219,-19.425001,-23.550001,-18.112501
1763129325958,3.1441689,4.074379,8.237292,-0.033597562,0.0025961753,0.0140498895,-0.040547308,-0.27416065,-0.8336279,-19.425001,-23.550001,-18.112501
1763129325959,3.1441689,4.074379,8.237292,-0.019394957,-0.016493348,0.021074835,-0.040547308,-0.27416065,-0.8336279,-19.425001,-23.550001,-18.112501
1763129325961,3.1441689,4.074379,8.237292,-0.019394957,-0.016493348,0.021074835,-0.040547308,-0.27416065,-0.8336279,-18.0,-21.431252,-16.893751
1763129325962,3.21715,4.0307097,8.340183,-0.019394957,-0.016493348,0.021074835,-0.040547308,-0.27416065,-0.8336279,-18.0,-21.431252,-16.893751
1763129325978,3.21715,4.0307097,8.340183,-0.019394957,-0.016493348,0.021074835,-0.040547308,-0.27416065,-0.8336279,-18.337502,-23.94375,-17.7
1763129325979,3.21715,4.0307097,8.340183,0.005345067,-0.022143848,0.003970621,-0.040547308,-0.27416065,-0.8336279,-18.337502,-23.94375,-17.7
1763129325980,3.21715,4.0307097,8.340183,0.005345067,-0.022143848,0.003970621,-0.04091257,-0.274153,-0.8338839,-18.337502,-23.94375,-17.7
1763129325981,3.3338,4.0277185,8.279166,0.005345067,-0.022143848,0.003970621,-0.04091257,-0.274153,-0.8338839,-18.337502,-23.94375,-17.7
1763129325997,3.3338,4.0277185,8.279166,0.005345067,-0.022143848,0.003970621,-0.04091257,-0.274153,-0.8338839,-18.337502,-20.737501,-18.69375
1763129326000,3.3338,4.0277185,8.279166,0.018173227,-0.013286309,-0.023823727,-0.04091257,-0.274153,-0.8338839,-18.337502,-20.737501,-18.69375
1763129326002,3.3338,4.0277185,8.279166,0.018173227,-0.013286309,-0.023823727,-0.041317645,-0.2743376,-0.83433175,-18.337502,-20.737501,-18.69375
1763129326003,3.3176486,4.0325046,8.143971,0.018173227,-0.013286309,-0.023823727,-0.041317645,-0.2743376,-0.83433175,-18.337502,-20.737501,-18.69375
1763129326018,3.3176486,4.0325046,8.143971,0.018173227,-0.013286309,-0.023823727,-0.041317645,-0.2743376,-0.83433175,-20.962502,-23.56875,-17.19375
1763129326021,3.3176486,4.0325046,8.143971,0.018173227,-0.013286309,-0.023823727,-0.041655388,-0.2743814,-0.83473355,-20.962502,-23.56875,-17.19375
1763129326022,3.3176486,4.0325046,8.143971,-0.00641408,-0.0030543238,-0.029474225,-0.041655388,-0.2743814,-0.83473355,-20.962502,-23.56875,-17.19375
1763129326024,3.2063823,4.066602,8.136793,-0.00641408,-0.0030543238,-0.029474225,-0.041655388,-0.2743814,-0.83473355,-20.962502,-23.56875,-17.19375
1763129326038,3.2063823,4.066602,8.136793,-0.00641408,-0.0030543238,-0.029474225,-0.041655388,-0.2743814,-0.83473355,-20.53125,-24.750002,-16.7625
1763129326042,3.2063823,4.066602,8.136793,-0.00641408,-0.0030543238,-0.029474225,-0.041770346,-0.27437174,-0.8348852,-20.53125,-24.750002,-16.7625
1763129326044,3.2063823,4.066602,8.136793,-0.0140498895,-0.0074830935,-0.016951498,-0.041770346,-0.27437174,-0.8348852,-20.53125,-24.750002,-16.7625
1763129326045,3.1363924,4.066004,8.213962,-0.0140498895,-0.0074830935,-0.016951498,-0.041770346,-0.27437174,-0.8348852,-20.53125,-24.750002,-16.7625
1763129326057,3.1363924,4.066004,8.213962,-0.0140498895,-0.0074830935,-0.016951498,-0.041770346,-0.27437174,-0.8348852,-19.78125,-23.1375,-16.5
1763129326064,3.1363924,4.066004,8.213962,-0.0140498895,-0.0074830935,-0.016951498,-0.041727327,-0.2743691,-0.83496416,-19.78125,-23.1375,-16.5
1763129326065,3.1363924,4.066004,8.213962,-0.0013744457,-0.010079269,-0.010384701,-0.041727327,-0.2743691,-0.83496416,-19.78125,-23.1375,-16.5
1763129326066,3.1836505,4.0881376,8.251649,-0.0013744457,-0.010079269,-0.010384701,-0.041727327,-0.2743691,-0.83496416,-19.78125,-23.1375,-16.5
1763129326077,3.1836505,4.0881376,8.251649,-0.0013744457,-0.010079269,-0.010384701,-0.041727327,-0.2743691,-0.83496416,-21.243752,-24.13125,-18.6375
1763129326084,3.1836505,4.0881376,8.251649,-0.0013744457,-0.010079269,-0.010384701,-0.041542567,-0.2745063,-0.8350541,-21.243752,-24.13125,-18.6375
1763129326085,3.1836505,4.0881376,8.251649,0.01924224,0.0018325944,-0.016035201,-0.041542567,-0.2745063,-0.8350541,-21.243752,-24.13125,-18.6375
1763129326087,3.1776686,4.080361,8.187042,0.01924224,0.0018325944,-0.016035201,-0.041542567,-0.2745063,-0.8350541,-21.243752,-24.13125,-18.6375
1763129326099,3.1776686,4.080361,8.187042,0.01924224,0.0018325944,-0.016035201,-0.041542567,-0.2745063,-0.8350541,-20.60625,-23.493752,-16.81875
1763129326108,3.1776686,4.080361,8.187042,0.0067195124,-0.0042760535,-0.008704823,-0.041542567,-0.2745063,-0.8350541,-20.60625,-23.493752,-16.81875
1763129326109,3.1345978,4.1030927,8.11466,0.0067195124,-0.0042760535,-0.008704823,-0.041542567,-0.2745063,-0.8350541,-20.60625,-23.493752,-16.81875
1763129326118,3.1345978,4.1030927,8.11466,0.0067195124,-0.0042760535,-0.008704823,-0.041581847,-0.27459034,-0.83526313,-20.60625,-23.493752,-16.81875
1763129326119,3.1345978,4.1030927,8.11466,0.0067195124,-0.0042760535,-0.008704823,-0.041581847,-0.27459034,-0.83526313,-20.5125,-22.35,-17.85
1763129326126,3.1345978,4.1030927,8.11466,-0.013744458,-0.0021380268,0.0044287695,-0.041581847,-0.27459034,-0.83526313,-20.5125,-22.35,-17.85
1763129326127,3.1776686,4.0612183,8.19123,-0.013744458,-0.0021380268,0.0044287695,-0.041581847,-0.27459034,-0.83526313,-20.5125,-22.35,-17.85
1763129326138,3.1776686,4.0612183,8.19123,-0.013744458,-0.0021380268,0.0044287695,-0.041504152,-0.27456948,-0.83517796,-20.5125,-22.35,-17.85
1763129326138,3.1776686,4.0612183,8.19123,-0.013744458,-0.0021380268,0.0044287695,-0.041504152,-0.27456948,-0.83517796,-20.306252,-22.29375,-16.275002
1763129326149,3.1776686,4.0612183,8.19123,-0.014966187,-0.0050396346,0.0035124724,-0.041504152,-0.27456948,-0.83517796,-20.306252,-22.29375,-16.275002
1763129326151,3.19382,4.0905304,8.242676,-0.014966187,-0.0050396346,0.0035124724,-0.041504152,-0.27456948,-0.83517796,-20.306252,-22.29375,-16.275002
1763129326158,3.19382,4.0905304,8.242676,-0.014966187,-0.0050396346,0.0035124724,-0.041639376,-0.27444848,-0.8352735,-20.306252,-22.29375,-16.275002
1763129326158,3.19382,4.0905304,8.242676,-0.014966187,-0.0050396346,0.0035124724,-0.041639376,-0.27444848,-0.8352735,-19.875,-22.518751,-16.10625
1763129326168,3.19382,4.0905304,8.242676,-0.006872229,-0.017409647,0.0025961753,-0.041639376,-0.27444848,-0.8352735,-19.875,-22.518751,-16.10625
1763129326169,3.21715,4.069593,8.272586,-0.006872229,-0.017409647,0.0025961753,-0.041639376,-0.27444848,-0.8352735,-19.875,-22.518751,-16.10625
1763129326178,3.21715,4.069593,8.272586,-0.006872229,-0.017409647,0.0025961753,-0.041819457,-0.27446353,-0.83533394,-19.875,-22.518751,-16.10625
1763129326179,3.21715,4.069593,8.272586,-0.006872229,-0.017409647,0.0025961753,-0.041819457,-0.27446353,-0.83533394,-19.21875,-20.925001,-17.38125
1763129326189,3.21715,4.069593,8.272586,0.007788526,-0.02046397,-0.0021380268,-0.041819457,-0.27446353,-0.83533394,-19.21875,-20.925001,-17.38125
1763129326190,3.222534,4.0534415,8.149954,0.007788526,-0.02046397,-0.0021380268,-0.041819457,-0.27446353,-0.83533394,-19.21875,-20.925001,-17.38125
1763129326200,3.222534,4.0534415,8.149954,0.007788526,-0.02046397,-0.0021380268,-0.04202663,-0.27457467,-0.8354511,-19.21875,-20.925001,-17.38125
1763129326200,3.222534,4.0534415,8.149954,0.007788526,-0.02046397,-0.0021380268,-0.04202663,-0.27457467,-0.8354511,-20.325,-22.125,-16.48125
1763129326211,3.222534,4.0534415,8.149954,-0.008093959,-0.017715078,-0.006261364,-0.04202663,-0.27457467,-0.8354511,-20.325,-22.125,-16.48125
1763129326212,3.2189445,4.0534415,8.100901,-0.008093959,-0.017715078,-0.006261364,-0.04202663,-0.27457467,-0.8354511,-20.325,-22.125,-16.48125
1763129326218,3.2189445,4.0534415,8.100901,-0.008093959,-0.017715078,-0.006261364,-0.042297866,-0.27462807,-0.8355861,-20.325,-22.125,-16.48125
1763129326218,3.2189445,4.0534415,8.100901,-0.008093959,-0.017715078,-0.006261364,-0.042297866,-0.27462807,-0.8355861,-18.862501,-21.6375,-16.78125
1763129326234,3.2189445,4.0534415,8.100901,-0.028863361,-0.008246674,-0.004123337,-0.042297866,-0.27462807,-0.8355861,-18.862501,-21.6375,-16.78125
1763129326235,3.2237303,4.0755754,8.202596,-0.028863361,-0.008246674,-0.004123337,-0.042297866,-0.27462807,-0.8355861,-18.862501,-21.6375,-16.78125
1763129326239,3.2237303,4.0755754,8.202596,-0.028863361,-0.008246674,-0.004123337,-0.042297866,-0.27462807,-0.8355861,-19.78125,-23.118752,-16.050001
1763129326253,3.2237303,4.0755754,8.202596,-0.016187917,-0.011911863,-0.0021380268,-0.042297866,-0.27462807,-0.8355861,-19.78125,-23.118752,-16.050001
1763129326254,3.1698918,4.080959,8.30788,-0.016187917,-0.011911863,-0.0021380268,-0.042297866,-0.27462807,-0.8355861,-19.78125,-23.118752,-16.050001
1763129326259,3.1698918,4.080959,8.30788,-0.016187917,-0.011911863,-0.0021380268,-0.042570487,-0.27449915,-0.83573085,-19.78125,-23.118752,-16.050001
1763129326260,3.1698918,4.080959,8.30788,-0.016187917,-0.011911863,-0.0021380268,-0.042802285,-0.27443814,-0.83587396,-19.78125,-23.118752,-16.050001
1763129326262,3.1698918,4.080959,8.30788,-0.016187917,-0.011911863,-0.0021380268,-0.042802285,-0.27443814,-0.83587396,-19.275002,-22.06875,-18.618752
1763129326274,3.1698918,4.080959,8.30788,-0.0027488915,-0.018631376,0.0030543238,-0.042802285,-0.27443814,-0.83587396,-19.275002,-22.06875,-18.618752
1763129326275,3.2416766,4.0570307,8.246863,-0.0027488915,-0.018631376,0.0030543238,-0.042802285,-0.27443814,-0.83587396,-19.275002,-22.06875,-18.618752
1763129326279,3.2416766,4.0570307,8.246863,-0.0027488915,-0.018631376,0.0030543238,-0.042802285,-0.27443814,-0.83587396,-19.893751,-22.368752,-17.34375
1763129326281,3.2416766,4.0570307,8.246863,-0.0027488915,-0.018631376,0.0030543238,-0.04290785,-0.27440873,-0.83593744,-19.893751,-22.368752,-17.34375
1763129326294,3.2416766,4.0570307,8.246863,-0.0019853106,-0.02535089,-0.0067195124,-0.04290785,-0.27440873,-0.83593744,-19.893751,-22.368752,-17.34375
1763129326295,3.245864,4.0552363,8.218149,-0.0019853106,-0.02535089,-0.0067195124,-0.04290785,-0.27440873,-0.83593744,-19.893751,-22.368752,-17.34375
1763129326300,3.245864,4.0552363,8.218149,-0.0019853106,-0.02535089,-0.0067195124,-0.043260254,-0.2744783,-0.83616525,-19.893751,-22.368752,-17.34375
1763129326301,3.245864,4.0552363,8.218149,-0.0019853106,-0.02535089,-0.0067195124,-0.043260254,-0.2744783,-0.83616525,-20.925001,-23.8875,-16.650002
1763129326315,3.245864,4.0552363,8.218149,-0.008399391,-0.0377209,-0.002290743,-0.043260254,-0.2744783,-0.83616525,-20.925001,-23.8875,-16.650002
1763129326316,3.229114,4.0360937,8.210971,-0.008399391,-0.0377209,-0.002290743,-0.043260254,-0.2744783,-0.83616525,-20.925001,-23.8875,-16.650002
1763129326317,3.229114,4.0360937,8.210971,-0.008399391,-0.0377209,-0.002290743,-0.04371663,-0.2745813,-0.83629334,-20.925001,-23.8875,-16.650002
1763129326319,3.229114,4.0360937,8.210971,-0.008399391,-0.0377209,-0.002290743,-0.04371663,-0.2745813,-0.83629334,-20.15625,-23.0625,-17.1
1763129326337,3.229114,4.0360937,8.210971,0.0033597562,-0.04092794,-4.581486E-4,-0.04371663,-0.2745813,-0.83629334,-20.15625,-23.0625,-17.1
1763129326338,3.2333016,4.042674,8.141579,0.0033597562,-0.04092794,-4.581486E-4,-0.04371663,-0.2745813,-0.83629334,-20.15625,-23.0625,-17.1
1763129326340,3.2333016,4.042674,8.141579,0.0033597562,-0.04092794,-4.581486E-4,-0.044151016,-0.2747623,-0.83642036,-20.15625,-23.0625,-17.1
1763129326341,3.2333016,4.042674,8.141579,0.0033597562,-0.04092794,-4.581486E-4,-0.044151016,-0.2747623,-0.83642036,-19.06875,-21.862501,-18.0
1763129326365,3.2333016,4.042674,8.141579,0.0033597562,-0.04092794,-4.581486E-4,-0.04428782,-0.27488598,-0.8365431,-19.06875,-21.862501,-18.0
1763129326367,3.2333016,4.042674,8.141579,0.006261364,-0.00962112,-0.004123337,-0.04428782,-0.27488598,-0.8365431,-19.06875,-21.862501,-18.0
1763129326368,3.2656047,4.0881376,8.024331,0.006261364,-0.00962112,-0.004123337,-0.04428782,-0.27488598,-0.8365431,-19.06875,-21.862501,-18.0
1763129326369,3.2656047,4.0881376,8.024331,0.006261364,-0.00962112,-0.004123337,-0.04428782,-0.27488598,-0.8365431,-20.15625,-22.40625,-16.35
1763129326379,3.2656047,4.0881376,8.024331,0.006261364,-0.00962112,-0.004123337,-0.044461876,-0.27481005,-0.8365838,-20.15625,-22.40625,-16.35
1763129326379,3.2656047,4.0881376,8.024331,0.006261364,-0.00962112,-0.004123337,-0.044461876,-0.27481005,-0.8365838,-20.00625,-24.0,-16.95
1763129326380,3.2656047,4.0881376,8.024331,-0.032375835,0.002290743,-6.108648E-4,-0.044461876,-0.27481005,-0.8365838,-20.00625,-24.0,-16.95
1763129326382,3.21715,4.085745,8.142178,-0.032375835,0.002290743,-6.108648E-4,-0.044461876,-0.27481005,-0.8365838,-20.00625,-24.0,-16.95
1763129326397,3.21715,4.085745,8.142178,-0.032375835,0.002290743,-6.108648E-4,-0.044461876,-0.27481005,-0.8365838,-21.975,-25.406252,-15.656251
1763129326399,3.21715,4.085745,8.142178,-0.031917684,-0.024281874,-1.527162E-4,-0.044461876,-0.27481005,-0.8365838,-21.975,-25.406252,-15.656251
1763129326401,3.21715,4.085745,8.142178,-0.031917684,-0.024281874,-1.527162E-4,-0.04475406,-0.27473393,-0.83662397,-21.975,-25.406252,-15.656251
1763129326402,3.1932218,4.0474596,8.282157,-0.031917684,-0.024281874,-1.527162E-4,-0.04475406,-0.27473393,-0.83662397,-21.975,-25.406252,-15.656251
1763129326417,3.1932218,4.0474596,8.282157,-0.031917684,-0.024281874,-1.527162E-4,-0.04475406,-0.27473393,-0.83662397,-20.56875,-22.050001,-17.94375
1763129326420,3.1932218,4.0474596,8.282157,-0.031917684,-0.024281874,-1.527162E-4,-0.04504162,-0.27459678,-0.83676034,-20.56875,-22.050001,-17.94375
1763129326422,3.1932218,4.0474596,8.282157,-0.017715078,-0.027030766,0.0030543238,-0.04504162,-0.27459678,-0.83676034,-20.56875,-22.050001,-17.94375
1763129326423,3.1375887,4.0420756,8.244471,-0.017715078,-0.027030766,0.0030543238,-0.04504162,-0.27459678,-0.83676034,-20.56875,-22.050001,-17.94375
1763129326438,3.1375887,4.0420756,8.244471,-0.017715078,-0.027030766,0.0030543238,-0.04504162,-0.27459678,-0.83676034,-19.743752,-23.1375,-18.31875
1763129326441,3.1375887,4.0420756,8.244471,-0.017715078,-0.027030766,0.0030543238,-0.04512655,-0.27448988,-0.8367033,-19.743752,-23.1375,-18.31875
1763129326442,3.1375887,4.0420756,8.244471,-0.010079269,-0.020158539,0.016951498,-0.04512655,-0.27448988,-0.8367033,-19.743752,-23.1375,-18.31875
1763129326443,3.2243285,4.045665,8.261818,-0.010079269,-0.020158539,0.016951498,-0.04512655,-0.27448988,-0.8367033,-19.743752,-23.1375,-18.31875
1763129326458,3.2243285,4.045665,8.261818,-0.010079269,-0.020158539,0.016951498,-0.04512655,-0.27448988,-0.8367033,-19.425001,-23.681252,-15.95625
1763129326462,3.2243285,4.045665,8.261818,0.0042760535,-9.162972E-4,0.014508039,-0.04512655,-0.27448988,-0.8367033,-19.425001,-23.681252,-15.95625
1763129326464,3.2243285,4.045665,8.261818,0.0042760535,-9.162972E-4,0.014508039,-0.04516147,-0.27445203,-0.83672583,-19.425001,-23.681252,-15.95625
1763129326465,3.3290145,3.9978085,8.1738825,0.0042760535,-9.162972E-4,0.014508039,-0.04516147,-0.27445203,-0.83672583,-19.425001,-23.681252,-15.95625
1763129326477,3.3290145,3.9978085,8.1738825,0.0042760535,-9.162972E-4,0.014508039,-0.04516147,-0.27445203,-0.83672583,-19.931252,-22.2,-16.2
1763129326483,3.3290145,3.9978085,8.1738825,-0.0074830935,-0.011148282,3.054324E-4,-0.04516147,-0.27445203,-0.83672583,-19.931252,-22.2,-16.2
1763129326484,3.3290145,3.9978085,8.1738825,-0.0074830935,-0.011148282,3.054324E-4,-0.045623474,-0.27443618,-0.8370008,-19.931252,-22.2,-16.2
1763129326486,3.426522,4.0438704,8.130812,-0.0074830935,-0.011148282,3.054324E-4,-0.045623474,-0.27443618,-0.8370008,-19.931252,-22.2,-16.2
1763129326500,3.426522,4.0438704,8.130812,-0.0074830935,-0.011148282,3.054324E-4,-0.045623474,-0.27443618,-0.8370008,-18.206251,-21.65625,-17.493752
1763129326504,3.426522,4.0438704,8.130812,-0.018936807,-0.008704823,-0.015729768,-0.045623474,-0.27443618,-0.8370008,-18.206251,-21.65625,-17.493752
1763129326506,3.426522,4.0438704,8.130812,-0.018936807,-0.008704823,-0.015729768,-0.046162963,-0.27447715,-0.83731824,-18.206251,-21.65625,-17.493752
1763129326507,3.3242288,4.0037904,8.159525,-0.018936807,-0.008704823,-0.015729768,-0.046162963,-0.27447715,-0.83731824,-18.206251,-21.65625,-17.493752
1763129326517,3.3242288,4.0037904,8.159525,-0.018936807,-0.008704823,-0.015729768,-0.046162963,-0.27447715,-0.83731824,-19.987501,-23.34375,-16.66875
1763129326525,3.3242288,4.0037904,8.159525,-0.017409647,-0.007177661,-0.01527162,-0.046162963,-0.27447715,-0.83731824,-19.987501,-23.34375,-16.66875
1763129326527,3.3242288,4.0037904,8.159525,-0.017409647,-0.007177661,-0.01527162,-0.0465323,-0.27438307,-0.8376392,-19.987501,-23.34375,-16.66875
1763129326528,3.2123644,4.0642095,8.223534,-0.017409647,-0.007177661,-0.01527162,-0.0465323,-0.27438307,-0.8376392,-19.987501,-23.34375,-16.66875
1763129326539,3.2123644,4.0642095,8.223534,-0.017409647,-0.007177661,-0.01527162,-0.0465323,-0.27438307,-0.8376392,-18.1875,-21.806252,-16.85625
1763129326546,3.2123644,4.0642095,8.223534,-0.0015271619,0.015577052,1.527162E-4,-0.0465323,-0.27438307,-0.8376392,-18.1875,-21.806252,-16.85625
1763129326547,3.2267213,4.022933,8.19123,-0.0015271619,0.015577052,1.527162E-4,-0.0465323,-0.27438307,-0.8376392,-18.1875,-21.806252,-16.85625
1763129326558,3.2267213,4.022933,8.19123,-0.0015271619,0.015577052,1.527162E-4,-0.046372086,-0.27427015,-0.8377698,-18.1875,-21.806252,-16.85625
1763129326559,3.2267213,4.022933,8.19123,-0.0015271619,0.015577052,1.527162E-4,-0.046372086,-0.27427015,-0.8377698,-20.98125,-23.56875,-16.143751
1763129326566,3.2267213,4.022933,8.19123,-0.0108428495,0.012064579,-1.527162E-4,-0.046372086,-0.27427015,-0.8377698,-20.98125,-23.56875,-16.143751
1763129326568,3.2362926,4.031308,8.2761755,-0.0108428495,0.012064579,-1.527162E-4,-0.046372086,-0.27427015,-0.8377698,-20.98125,-23.56875,-16.143751
1763129326578,3.2362926,4.031308,8.2761755,-0.0108428495,0.012064579,-1.527162E-4,-0.046334878,-0.27408743,-0.8378885,-20.98125,-23.56875,-16.143751
1763129326579,3.2362926,4.031308,8.2761755,-0.0108428495,0.012064579,-1.527162E-4,-0.046334878,-0.27408743,-0.8378885,-20.362501,-23.4375,-16.7625
1763129326588,3.2362926,4.031308,8.2761755,0.0059559317,-0.0070249448,-0.0021380268,-0.046334878,-0.27408743,-0.8378885,-20.362501,-23.4375,-16.7625
1763129326590,3.2817562,4.024728,8.236095,0.0059559317,-0.0070249448,-0.0021380268,-0.046334878,-0.27408743,-0.8378885,-20.362501,-23.4375,-16.7625
1763129326600,3.2817562,4.024728,8.236095,0.0059559317,-0.0070249448,-0.0021380268,-0.046393428,-0.2740846,-0.8380127,-20.362501,-23.4375,-16.7625
1763129326601,3.2817562,4.024728,8.236095,0.0059559317,-0.0070249448,-0.0021380268,-0.046393428,-0.2740846,-0.8380127,-19.59375,-22.7625,-15.7875
1763129326609,3.2817562,4.024728,8.236095,-0.0067195124,-0.0070249448,-0.006261364,-0.046393428,-0.2740846,-0.8380127,-19.59375,-22.7625,-15.7875
1763129326610,3.2650065,4.0187454,8.219944,-0.0067195124,-0.0070249448,-0.006261364,-0.046393428,-0.2740846,-0.8380127,-19.59375,-22.7625,-15.7875
1763129326619,3.2650065,4.0187454,8.219944,-0.0067195124,-0.0070249448,-0.006261364,-0.04662226,-0.27402425,-0.8382412,-19.59375,-22.7625,-15.7875
1763129326620,3.2650065,4.0187454,8.219944,-0.0067195124,-0.0070249448,-0.006261364,-0.04662226,-0.27402425,-0.8382412,-20.325,-22.125,-16.181252
1763129326630,3.2650065,4.0187454,8.219944,-0.0015271619,-0.011148282,-0.007788526,-0.04662226,-0.27402425,-0.8382412,-20.325,-22.125,-16.181252
1763129326631,3.2841492,4.0408792,8.246863,-0.0015271619,-0.011148282,-0.007788526,-0.04662226,-0.27402425,-0.8382412,-20.325,-22.125,-16.181252
1763129326638,3.2841492,4.0408792,8.246863,-0.0015271619,-0.011148282,-0.007788526,-0.046819832,-0.27402797,-0.838434,-20.325,-22.125,-16.181252
1763129326639,3.2841492,4.0408792,8.246863,-0.0015271619,-0.011148282,-0.007788526,-0.046819832,-0.27402797,-0.838434,-19.9125,-22.2,-16.95
1763129326651,3.2841492,4.0408792,8.246863,0.010690134,-0.00763581,-0.010384701,-0.046819832,-0.27402797,-0.838434,-19.9125,-22.2,-16.95
1763129326652,3.2243285,4.0474596,8.163115,0.010690134,-0.00763581,-0.010384701,-0.046819832,-0.27402797,-0.838434,-19.9125,-22.2,-16.95
1763129326659,3.2243285,4.0474596,8.163115,0.010690134,-0.00763581,-0.010384701,-0.0469156,-0.27413785,-0.83858716,-19.9125,-22.2,-16.95
1763129326660,3.2243285,4.0474596,8.163115,0.010690134,-0.00763581,-0.010384701,-0.0469156,-0.27413785,-0.83858716,-18.84375,-22.29375,-19.48125
1763129326672,3.2243285,4.0474596,8.163115,0.0029016077,-0.0058032153,-0.008704823,-0.0469156,-0.27413785,-0.83858716,-18.84375,-22.29375,-19.48125
1763129326680,3.219543,4.0564327,8.094321,0.0029016077,-0.0058032153,-0.008704823,-0.0469156,-0.27413785,-0.83858716,-18.84375,-22.29375,-19.48125
1763129326681,3.219543,4.0564327,8.094321,0.0029016077,-0.0058032153,-0.008704823,-0.046883747,-0.27422214,-0.83863014,-18.84375,-22.29375,-19.48125
1763129326685,3.219543,4.0564327,8.094321,0.0029016077,-0.0058032153,-0.008704823,-0.046883747,-0.27422214,-0.83863014,-20.6625,-23.831251,-17.19375
1763129326693,3.219543,4.0564327,8.094321,-0.016493348,0.0027488915,-0.0010690134,-0.046883747,-0.27422214,-0.83863014,-20.6625,-23.831251,-17.19375
1763129326694,3.2177482,4.046861,8.142178,-0.016493348,0.0027488915,-0.0010690134,-0.046883747,-0.27422214,-0.83863014,-20.6625,-23.831251,-17.19375
1763129326699,3.2177482,4.046861,8.142178,-0.016493348,0.0027488915,-0.0010690134,-0.046883747,-0.27422214,-0.83863014,-19.556252,-22.9125,-16.650002
1763129326699,3.2177482,4.046861,8.142178,-0.016493348,0.0027488915,-0.0010690134,-0.046873175,-0.27416548,-0.8386515,-19.556252,-22.9125,-16.650002
1763129326714,3.2177482,4.046861,8.142178,-0.013744458,0.0074830935,-0.0035124724,-0.046873175,-0.27416548,-0.8386515,-19.556252,-22.9125,-16.650002
1763129326715,3.2602208,4.0211387,8.2456665,-0.013744458,0.0074830935,-0.0035124724,-0.046873175,-0.27416548,-0.8386515,-19.556252,-22.9125,-16.650002
1763129326718,3.2602208,4.0211387,8.2456665,-0.013744458,0.0074830935,-0.0035124724,-0.046829443,-0.2740532,-0.8387379,-19.556252,-22.9125,-16.650002
1763129326720,3.2602208,4.0211387,8.2456665,-0.013744458,0.0074830935,-0.0035124724,-0.046829443,-0.2740532,-0.8387379,-21.525002,-24.16875,-15.843751
1763129326735,3.2602208,4.0211387,8.2456665,-0.01282816,-3.054324E-4,-0.0013744457,-0.046829443,-0.2740532,-0.8387379,-21.525002,-24.16875,-15.843751
1763129326736,3.176472,4.0331025,8.270791,-0.01282816,-3.054324E-4,-0.0013744457,-0.046829443,-0.2740532,-0.8387379,-21.525002,-24.16875,-15.843751
1763129326739,3.176472,4.0331025,8.270791,-0.01282816,-3.054324E-4,-0.0013744457,-0.046981398,-0.27388397,-0.8389171,-21.525002,-24.16875,-15.843751
1763129326740,3.176472,4.0331025,8.270791,-0.01282816,-3.054324E-4,-0.0013744457,-0.046981398,-0.27388397,-0.8389171,-20.268751,-23.8875,-17.362501
1763129326756,3.176472,4.0331025,8.270791,-0.0010690134,-0.009468404,0.00641408,-0.046981398,-0.27388397,-0.8389171,-20.268751,-23.8875,-17.362501
1763129326756,3.2027931,4.019942,8.242676,-0.0010690134,-0.009468404,0.00641408,-0.046981398,-0.27388397,-0.8389171,-20.268751,-23.8875,-17.362501
1763129326757,3.2027931,4.019942,8.242676,-0.0010690134,-0.009468404,0.00641408,-0.046979364,-0.2738096,-0.83895135,-20.268751,-23.8875,-17.362501
1763129326759,3.2027931,4.019942,8.242676,-0.0010690134,-0.009468404,0.00641408,-0.046979364,-0.2738096,-0.83895135,-19.66875,-22.143751,-16.893751
1763129326778,3.2620156,4.0474596,8.206185,-0.0010690134,-0.009468404,0.00641408,-0.046979364,-0.2738096,-0.83895135,-19.66875,-22.143751,-16.893751
1763129326780,3.2620156,4.0474596,8.206185,-0.0010690134,-0.009468404,0.00641408,-0.046979364,-0.2738096,-0.83895135,-20.56875,-22.050001,-18.54375
1763129326781,3.2620156,4.0474596,8.206185,-0.0010690134,-0.009468404,0.00641408,-0.047162518,-0.2737182,-0.8390256,-20.56875,-22.050001,-18.54375
1763129326782,3.2620156,4.0474596,8.206185,-0.007941242,-0.014508039,0.012522728,-0.047162518,-0.2737182,-0.8390256,-20.56875,-22.050001,-18.54375
1763129326798,3.2620156,4.0474596,8.206185,-0.0050396346,-0.019394957,0.00763581,-0.047162518,-0.2737182,-0.8390256,-20.56875,-22.050001,-18.54375
1763129326800,3.2620156,4.0474596,8.206185,-0.0050396346,-0.019394957,0.00763581,-0.047162518,-0.2737182,-0.8390256,-19.29375,-22.06875,-18.16875
1763129326801,3.3565319,4.0187454,8.183454,-0.0050396346,-0.019394957,0.00763581,-0.047162518,-0.2737182,-0.8390256,-19.29375,-22.06875,-18.16875
1763129326802,3.3565319,4.0187454,8.183454,-0.0050396346,-0.019394957,0.00763581,-0.047403365,-0.27378768,-0.8390464,-19.29375,-22.06875,-18.16875
1763129326817,3.3565319,4.0187454,8.183454,-0.0050396346,-0.019394957,0.00763581,-0.047403365,-0.27378768,-0.8390464,-21.206251,-23.625,-17.7
1763129326819,3.3565319,4.0187454,8.183454,-1.527162E-4,-0.0013744457,-0.01282816,-0.047403365,-0.27378768,-0.8390464,-21.206251,-23.625,-17.7
1763129326820,3.3565319,4.0187454,8.183454,-1.527162E-4,-0.0013744457,-0.01282816,-0.047677115,-0.27384603,-0.8393131,-21.206251,-23.625,-17.7
1763129326821,3.3278182,4.013362,8.1020975,-1.527162E-4,-0.0013744457,-0.01282816,-0.047677115,-0.27384603,-0.8393131,-21.206251,-23.625,-17.7
1763129326837,3.3278182,4.013362,8.1020975,-1.527162E-4,-0.0013744457,-0.01282816,-0.047677115,-0.27384603,-0.8393131,-20.400002,-23.268751,-16.2
1763129326840,3.3278182,4.013362,8.1020975,-1.527162E-4,-0.0013744457,-0.01282816,-0.047920756,-0.27377948,-0.83955306,-20.400002,-23.268751,-16.2
1763129326841,3.3278182,4.013362,8.1020975,-0.016646065,0.0050396346,-0.010384701,-0.047920756,-0.27377948,-0.83955306,-20.400002,-23.268751,-16.2
1763129326842,3.2877383,4.0331025,8.148758,-0.016646065,0.0050396346,-0.010384701,-0.047920756,-0.27377948,-0.83955306,-20.400002,-23.268751,-16.2
1763129326858,3.2877383,4.0331025,8.148758,-0.016646065,0.0050396346,-0.010384701,-0.047920756,-0.27377948,-0.83955306,-20.00625,-21.45,-19.743752
1763129326861,3.2877383,4.0331025,8.148758,-0.022296565,0.0070249448,-0.002290743,-0.047920756,-0.27377948,-0.83955306,-20.00625,-21.45,-19.743752
1763129326862,3.2877383,4.0331025,8.148758,-0.022296565,0.0070249448,-0.002290743,-0.048058446,-0.2736211,-0.8397032,-20.00625,-21.45,-19.743752
1763129326863,3.2847474,4.0103707,8.185248,-0.022296565,0.0070249448,-0.002290743,-0.048058446,-0.2736211,-0.8397032,-20.00625,-21.45,-19.743752
1763129326878,3.2847474,4.0103707,8.185248,-0.022296565,0.0070249448,-0.002290743,-0.048058446,-0.2736211,-0.8397032,-18.225,-21.806252,-15.4875
1763129326883,3.2847474,4.0103707,8.185248,-0.022296565,0.0070249448,-0.002290743,-0.048266936,-0.27341035,-0.8399383,-18.225,-21.806252,-15.4875
1763129326885,3.2847474,4.0103707,8.185248,-0.023823727,0.0025961753,-0.0065667965,-0.048266936,-0.27341035,-0.8399383,-18.225,-21.806252,-15.4875
1763129326886,3.2721848,3.9960139,8.289934,-0.023823727,0.0025961753,-0.0065667965,-0.048266936,-0.27341035,-0.8399383,-18.225,-21.806252,-15.4875
1763129326898,3.2721848,3.9960139,8.289934,-0.023823727,0.0025961753,-0.0065667965,-0.048266936,-0.27341035,-0.8399383,-19.743752,-23.1375,-17.868752
1763129326903,3.2721848,3.9960139,8.289934,-0.023823727,0.0025961753,-0.0065667965,-0.04843618,-0.27332664,-0.8401903,-19.743752,-23.1375,-17.868752
1763129326904,3.2721848,3.9960139,8.289934,4.581486E-4,-0.0051923506,-0.0067195124,-0.04843618,-0.27332664,-0.8401903,-19.743752,-23.1375,-17.868752
1763129326906,3.1758738,4.026522,8.309675,4.581486E-4,-0.0051923506,-0.0067195124,-0.04843618,-0.27332664,-0.8401903,-19.743752,-23.1375,-17.868752
1763129326917,3.1758738,4.026522,8.309675,4.581486E-4,-0.0051923506,-0.0067195124,-0.04843618,-0.27332664,-0.8401903,-20.5125,-22.35,-18.45
1763129326923,3.1758738,4.026522,8.309675,0.009468404,-0.00763581,0.0059559317,-0.04843618,-0.27332664,-0.8401903,-20.5125,-22.35,-18.45
1763129326924,3.1758738,4.026522,8.309675,0.009468404,-0.00763581,0.0059559317,-0.04833988,-0.27330583,-0.8402034,-20.5125,-22.35,-18.45
1763129326926,3.2045877,4.0474596,8.210373,0.009468404,-0.00763581,0.0059559317,-0.04833988,-0.27330583,-0.8402034,-20.5125,-22.35,-18.45
1763129326938,3.2045877,4.0474596,8.210373,0.009468404,-0.00763581,0.0059559317,-0.04833988,-0.27330583,-0.8402034,-20.025002,-23.325,-14.868751
1763129326945,3.2045877,4.0474596,8.210373,0.009468404,-0.00763581,0.0059559317,-0.048169445,-0.2733707,-0.84012073,-20.025002,-23.325,-14.868751
1763129326946,3.2380872,4.0187454,8.152945,0.009468404,-0.00763581,0.0059559317,-0.048169445,-0.2733707,-0.84012073,-20.025002,-23.325,-14.868751
1763129326948,3.2380872,4.0187454,8.152945,0.008704823,0.0021380268,0.00641408,-0.048169445,-0.2733707,-0.84012073,-20.025002,-23.325,-14.868751
1763129326958,3.2380872,4.0187454,8.152945,0.008704823,0.0021380268,0.00641408,-0.048169445,-0.2733707,-0.84012073,-19.06875,-21.712502,-18.956251
1763129326965,3.2380872,4.0187454,8.152945,-0.003817905,3.054324E-4,0.0059559317,-0.048169445,-0.2733707,-0.84012073,-19.06875,-21.712502,-18.956251
1763129326966,3.3194432,3.9948175,8.109874,-0.003817905,3.054324E-4,0.0059559317,-0.048169445,-0.2733707,-0.84012073,-19.06875,-21.712502,-18.956251
1763129326979,3.3194432,3.9948175,8.109874,-0.003817905,3.054324E-4,0.0059559317,-0.048258547,-0.27335313,-0.84022737,-19.06875,-21.712502,-18.956251
1763129326980,3.3194432,3.9948175,8.109874,-0.003817905,3.054324E-4,0.0059559317,-0.048258547,-0.27335313,-0.84022737,-21.300001,-23.962502,-16.743752
1763129326987,3.3194432,3.9948175,8.109874,-0.023976443,0.0027488915,-0.0058032153,-0.048258547,-0.27335313,-0.84022737,-21.300001,-23.962502,-16.743752
1763129326988,3.3565319,3.9738803,8.228319,-0.023976443,0.0027488915,-0.0058032153,-0.048258547,-0.27335313,-0.84022737,-21.300001,-23.962502,-16.743752
1763129326999,3.3565319,3.9738803,8.228319,-0.023976443,0.0027488915,-0.0058032153,-0.04857021,-0.2732097,-0.84047425,-21.300001,-23.962502,-16.743752
1763129327001,3.3565319,3.9738803,8.228319,-0.023976443,0.0027488915,-0.0058032153,-0.04857021,-0.2732097,-0.84047425,-21.487501,-24.337502,-17.306252
1763129327008,3.3565319,3.9738803,8.228319,-0.006261364,0.00763581,-0.014355322,-0.04857021,-0.2732097,-0.84047425,-21.487501,-24.337502,-17.306252
1763129327009,3.2147572,4.001996,8.370093,-0.006261364,0.00763581,-0.014355322,-0.04857021,-0.2732097,-0.84047425,-21.487501,-24.337502,-17.306252
1763129327017,3.2147572,4.001996,8.370093,-0.006261364,0.00763581,-0.014355322,-0.048863392,-0.2730829,-0.84087235,-21.487501,-24.337502,-17.306252
1763129327018,3.2147572,4.001996,8.370093,-0.006261364,0.00763581,-0.014355322,-0.048863392,-0.2730829,-0.84087235,-20.98125,-25.1625,-15.712501
1763129327029,3.2147572,4.001996,8.370093,0.024281874,-0.006261364,0.0027488915,-0.048863392,-0.2730829,-0.84087235,-20.98125,-25.1625,-15.712501
1763129327030,3.1393833,4.0181475,8.342576,0.024281874,-0.006261364,0.0027488915,-0.048863392,-0.2730829,-0.84087235,-20.98125,-25.1625,-15.712501
1763129327038,3.1393833,4.0181475,8.342576,0.024281874,-0.006261364,0.0027488915,-0.04881604,-0.27311835,-0.8409873,-20.98125,-25.1625,-15.712501
1763129327039,3.1393833,4.0181475,8.342576,0.024281874,-0.006261364,0.0027488915,-0.04881604,-0.27311835,-0.8409873,-20.400002,-23.118752,-16.85625
1763129327050,3.1393833,4.0181475,8.342576,0.037262753,-0.017409647,0.010079269,-0.04881604,-0.27311835,-0.8409873,-20.400002,-23.118752,-16.85625
1763129327051,3.275176,4.028317,8.154739,0.037262753,-0.017409647,0.010079269,-0.04881604,-0.27311835,-0.8409873,-20.400002,-23.118752,-16.85625
1763129327058,3.275176,4.028317,8.154739,0.037262753,-0.017409647,0.010079269,-0.04881604,-0.27311835,-0.8409873,-21.2625,-23.98125,-18.84375
1763129327060,3.275176,4.028317,8.154739,0.037262753,-0.017409647,0.010079269,-0.048629828,-0.27332255,-0.8409095,-21.2625,-23.98125,-18.84375
1763129327071,3.275176,4.028317,8.154739,0.01847866,-0.01282816,7.6358096E-4,-0.048629828,-0.27332255,-0.8409095,-21.2625,-23.98125,-18.84375
1763129327072,3.3343983,4.0360937,8.079366,0.01847866,-0.01282816,7.6358096E-4,-0.048629828,-0.27332255,-0.8409095,-21.2625,-23.98125,-18.84375
1763129327077,3.3343983,4.0360937,8.079366,0.01847866,-0.01282816,7.6358096E-4,-0.048728883,-0.27359736,-0.84090775,-21.2625,-23.98125,-18.84375
1763129327078,3.3343983,4.0360937,8.079366,0.01847866,-0.01282816,7.6358096E-4,-0.048728883,-0.27359736,-0.84090775,-19.29375,-22.06875,-18.16875
1763129327092,3.3343983,4.0360937,8.079366,-6.108648E-4,-0.022601997,6.108648E-4,-0.048728883,-0.27359736,-0.84090775,-19.29375,-22.06875,-18.16875
1763129327093,3.2542388,4.0151563,8.19123,-6.108648E-4,-0.022601997,6.108648E-4,-0.048728883,-0.27359736,-0.84090775,-19.29375,-22.06875,-18.16875
1763129327097,3.2542388,4.0151563,8.19123,-6.108648E-4,-0.022601997,6.108648E-4,-0.049095627,-0.27385798,-0.8409286,-19.29375,-22.06875,-18.16875
1763129327098,3.2542388,4.0151563,8.19123,-6.108648E-4,-0.022601997,6.108648E-4,-0.049095627,-0.27385798,-0.8409286,-20.60625,-23.475,-16.368752
1763129327113,3.2542388,4.0151563,8.19123,0.008399391,-0.037568185,0.006872229,-0.049095627,-0.27385798,-0.8409286,-20.60625,-23.475,-16.368752
1763129327114,3.2129626,3.9684963,8.480164,0.008399391,-0.037568185,0.006872229,-0.049095627,-0.27385798,-0.8409286,-20.60625,-23.475,-16.368752
1763129327118,3.2129626,3.9684963,8.480164,0.008399391,-0.037568185,0.006872229,-0.049434274,-0.27407992,-0.84093875,-20.60625,-23.475,-16.368752
1763129327119,3.2129626,3.9684963,8.480164,0.008399391,-0.037568185,0.006872229,-0.049434274,-0.27407992,-0.84093875,-19.03125,-21.35625,-17.8125
1763129327134,3.2129626,3.9684963,8.480164,0.12034036,-0.11453715,0.0129808765,-0.049434274,-0.27407992,-0.84093875,-19.03125,-21.35625,-17.8125
1763129327136,2.9545379,3.6496527,9.0341015,0.12034036,-0.11453715,0.0129808765,-0.049434274,-0.27407992,-0.84093875,-19.03125,-21.35625,-17.8125
1763129327139,2.9545379,3.6496527,9.0341015,0.12034036,-0.11453715,0.0129808765,-0.049951848,-0.27525178,-0.84083843,-19.03125,-21.35625,-17.8125
1763129327140,2.9545379,3.6496527,9.0341015,0.12034036,-0.11453715,0.0129808765,-0.049951848,-0.27525178,-0.84083843,-18.675001,-20.325,-17.831251
1763129327155,2.9545379,3.6496527,9.0341015,0.2784016,-0.5079341,0.049480047,-0.049951848,-0.27525178,-0.84083843,-18.675001,-20.325,-17.831251
1763129327155,2.864807,3.6861434,9.180662,0.2784016,-0.5079341,0.049480047,-0.049951848,-0.27525178,-0.84083843,-18.675001,-20.325,-17.831251
1763129327157,2.864807,3.6861434,9.180662,0.2784016,-0.5079341,0.049480047,-0.049951848,-0.27525178,-0.84083843,-19.9125,-22.2,-16.95
1763129327176,2.7535408,3.2991042,8.960523,0.2784016,-0.5079341,0.049480047,-0.049951848,-0.27525178,-0.84083843,-19.9125,-22.2,-16.95
1763129327177,2.7535408,3.2991042,8.960523,0.4231766,-0.98318684,0.09880738,-0.049951848,-0.27525178,-0.84083843,-19.9125,-22.2,-16.95
1763129327178,2.7535408,3.2991042,8.960523,0.4231766,-0.98318684,0.09880738,-0.05327297,-0.2784537,-0.84068656,-19.9125,-22.2,-16.95
1763129327179,2.7535408,3.2991042,8.960523,0.4231766,-0.98318684,0.09880738,-0.059664756,-0.28483605,-0.83941764,-19.9125,-22.2,-16.95
1763129327181,2.7535408,3.2991042,8.960523,0.4231766,-0.98318684,0.09880738,-0.059664756,-0.28483605,-0.83941764,-19.9125,-22.2,-17.25
1763129327200,2.7535408,3.2991042,8.960523,0.4231766,-0.98318684,0.09880738,-0.059664756,-0.28483605,-0.83941764,-21.45,-23.19375,-15.168751
1763129327201,2.7535408,3.2991042,8.960523,0.4231766,-0.98318684,0.09880738,-0.06983941,-0.2926753,-0.8371014,-21.45,-23.19375,-15.168751
1763129327202,2.7535408,3.2991042,8.960523,0.47952884,-1.3620757,0.30695954,-0.06983941,-0.2926753,-0.8371014,-21.45,-23.19375,-15.168751
1763129327203,2.6859434,3.3385859,8.035098,0.47952884,-1.3620757,0.30695954,-0.06983941,-0.2926753,-0.8371014,-21.45,-23.19375,-15.168751
1763129327218,2.9479575,3.5479577,7.4590263,0.47952884,-1.3620757,0.30695954,-0.06983941,-0.2926753,-0.8371014,-21.45,-23.19375,-15.168751
1763129327220,2.9479575,3.5479577,7.4590263,0.47952884,-1.3620757,0.30695954,-0.08140188,-0.30095464,-0.8323275,-21.45,-23.19375,-15.168751
1763129327220,2.9479575,3.5479577,7.4590263,0.42088583,-1.4708097,0.6200278,-0.08140188,-0.30095464,-0.8323275,-21.45,-23.19375,-15.168751
1763129327221,2.9479575,3.5479577,7.4590263,0.42088583,-1.4708097,0.6200278,-0.08140188,-0.30095464,-0.8323275,-21.73125,-24.393751,-16.7625
1763129327237,2.9479575,3.5479577,7.4590263,0.42088583,-1.4708097,0.6200278,-0.08140188,-0.30095464,-0.8323275,-21.150002,-22.63125,-15.225
1763129327239,2.9479575,3.5479577,7.4590263,0.41034842,-1.4610358,0.8101594,-0.08140188,-0.30095464,-0.8323275,-21.150002,-22.63125,-15.225
1763129327241,2.9479575,3.5479577,7.4590263,0.41034842,-1.4610358,0.8101594,-0.09307186,-0.30968076,-0.8257577,-21.150002,-22.63125,-15.225
1763129327242,3.932006,3.964309,7.448259,0.41034842,-1.4610358,0.8101594,-0.09307186,-0.30968076,-0.8257577,-21.150002,-22.63125,-15.225
1763129327257,3.932006,3.964309,7.448259,0.41034842,-1.4610358,0.8101594,-0.09307186,-0.30968076,-0.8257577,-21.806252,-22.48125,-16.06875
1763129327260,3.932006,3.964309,7.448259,0.4732675,-1.3716968,0.74097896,-0.09307186,-0.30968076,-0.8257577,-21.806252,-22.48125,-16.06875
1763129327261,3.932006,3.964309,7.448259,0.4732675,-1.3716968,0.74097896,-0.10415441,-0.31926602,-0.81908995,-21.806252,-22.48125,-16.06875
1763129327262,5.2947183,4.465007,7.2807612,0.4732675,-1.3716968,0.74097896,-0.10415441,-0.31926602,-0.81908995,-21.806252,-22.48125,-16.06875
1763129327277,5.2947183,4.465007,7.2807612,0.4732675,-1.3716968,0.74097896,-0.10415441,-0.31926602,-0.81908995,-23.681252,-22.743752,-15.337501
1763129327283,5.2947183,4.465007,7.2807612,0.48548478,-1.2061526,0.47800168,-0.10415441,-0.31926602,-0.81908995,-23.681252,-22.743752,-15.337501
1763129327284,6.1387863,4.970491,6.9678993,0.48548478,-1.2061526,0.47800168,-0.10415441,-0.31926602,-0.81908995,-23.681252,-22.743752,-15.337501
1763129327299,6.1387863,4.970491,6.9678993,0.48548478,-1.2061526,0.47800168,-0.10415441,-0.31926602,-0.81908995,-23.04375,-22.743752,-15.000001
1763129327303,6.1387863,4.970491,6.9678993,0.4566214,-0.983645,0.1631009,-0.10415441,-0.31926602,-0.81908995,-23.04375,-22.743752,-15.000001
1763129327304,6.1387863,4.970491,6.9678993,0.4566214,-0.983645,0.1631009,-0.113865204,-0.3288584,-0.8137583,-23.04375,-22.743752,-15.000001
1763129327306,6.2416778,4.703093,7.012765,0.4566214,-0.983645,0.1631009,-0.113865204,-0.3288584,-0.8137583,-23.04375,-22.743752,-15.000001
1763129327307,6.2416778,4.703093,7.012765,0.4566214,-0.983645,0.1631009,-0.120797314,-0.3375841,-0.8101361,-23.04375,-22.743752,-15.000001
1763129327318,6.2416778,4.703093,7.012765,0.4566214,-0.983645,0.1631009,-0.120797314,-0.3375841,-0.8101361,-24.431252,-23.85,-12.543751
1763129327322,5.68415,4.2275195,7.047461,0.4566214,-0.983645,0.1631009,-0.120797314,-0.3375841,-0.8101361,-24.431252,-23.85,-12.543751
1763129327323,5.68415,4.2275195,7.047461,0.51373726,-0.71119934,-0.046273008,-0.120797314,-0.3375841,-0.8101361,-24.431252,-23.85,-12.543751
1763129327325,5.68415,4.2275195,7.047461,0.51373726,-0.71119934,-0.046273008,-0.12450024,-0.3455743,-0.8077019,-24.431252,-23.85,-12.543751
1763129327338,5.68415,4.2275195,7.047461,0.51373726,-0.71119934,-0.046273008,-0.12450024,-0.3455743,-0.8077019,-24.562502,-22.931252,-13.743751
1763129327344,5.68415,4.2275195,7.047461,0.5398517,-0.6148354,-0.032833982,-0.12450024,-0.3455743,-0.8077019,-24.562502,-22.931252,-13.743751
1763129327345,5.68415,4.2275195,7.047461,0.5398517,-0.6148354,-0.032833982,-0.12730083,-0.35308528,-0.8052949,-24.562502,-22.931252,-13.743751
1763129327346,5.0422754,4.302295,6.519245,0.5398517,-0.6148354,-0.032833982,-0.12730083,-0.35308528,-0.8052949,-24.562502,-22.931252,-13.743751
1763129327358,5.0422754,4.302295,6.519245,0.5398517,-0.6148354,-0.032833982,-0.12730083,-0.35308528,-0.8052949,-25.687502,-24.6375,-13.9125
1763129327365,4.755735,4.485346,6.350551,0.5398517,-0.6148354,-0.032833982,-0.12730083,-0.35308528,-0.8052949,-25.687502,-24.6375,-13.9125
1763129327366,4.755735,4.485346,6.350551,0.41233373,-0.73975724,0.07467822,-0.12730083,-0.35308528,-0.8052949,-25.687502,-24.6375,-13.9125
1763129327368,4.755735,4.485346,6.350551,0.41233373,-0.73975724,0.07467822,-0.13189217,-0.36001647,-0.80245453,-25.687502,-24.6375,-13.9125
1763129327379,4.755735,4.485346,6.350551,0.41233373,-0.73975724,0.07467822,-0.13189217,-0.36001647,-0.80245453,-26.643751,-25.181252,-13.14375
1763129327386,4.755735,4.485346,6.350551,0.29794928,-1.0398445,0.16111559,-0.13189217,-0.36001647,-0.80245453,-26.643751,-25.181252,-13.14375
1763129327387,4.82752,4.3375893,6.593423,0.29794928,-1.0398445,0.16111559,-0.13189217,-0.36001647,-0.80245453,-26.643751,-25.181252,-13.14375
1763129327400,4.82752,4.3375893,6.593423,0.29794928,-1.0398445,0.16111559,-0.13960323,-0.3673313,-0.7989549,-26.643751,-25.181252,-13.14375
1763129327401,4.82752,4.3375893,6.593423,0.29794928,-1.0398445,0.16111559,-0.13960323,-0.3673313,-0.7989549,-27.581251,-24.768751,-14.437501
1763129327408,4.82752,4.3375893,6.593423,0.2509127,-1.4089596,0.20387612,-0.13960323,-0.3673313,-0.7989549,-27.581251,-24.768751,-14.437501
1763129327409,5.3682976,4.3848476,6.503692,0.2509127,-1.4089596,0.20387612,-0.13960323,-0.3673313,-0.7989549,-27.581251,-24.768751,-14.437501
1763129327417,5.3682976,4.3848476,6.503692,0.2509127,-1.4089596,0.20387612,-0.1507701,-0.37577972,-0.7948228,-27.581251,-24.768751,-14.437501
1763129327418,5.3682976,4.3848476,6.503692,0.2509127,-1.4089596,0.20387612,-0.1507701,-0.37577972,-0.7948228,-27.6375,-25.406252,-12.76875
1763129327428,5.3682976,4.3848476,6.503692,0.2290743,-1.563203,0.18112141,-0.1507701,-0.37577972,-0.7948228,-27.6375,-25.406252,-12.76875
1763129327429,6.257829,5.085346,6.1992054,0.2290743,-1.563203,0.18112141,-0.1507701,-0.37577972,-0.7948228,-27.6375,-25.406252,-12.76875
1763129327437,6.257829,5.085346,6.1992054,0.2290743,-1.563203,0.18112141,-0.16328351,-0.38471463,-0.79047424,-27.6375,-25.406252,-12.76875
1763129327439,6.257829,5.085346,6.1992054,0.2290743,-1.563203,0.18112141,-0.16328351,-0.38471463,-0.79047424,-29.38125,-24.993752,-11.137501
1763129327450,6.257829,5.085346,6.1992054,0.22892158,-1.4138465,0.084452055,-0.16328351,-0.38471463,-0.79047424,-29.38125,-24.993752,-11.137501
1763129327451,6.5838513,5.3647084,5.7140603,0.22892158,-1.4138465,0.084452055,-0.16328351,-0.38471463,-0.79047424,-29.38125,-24.993752,-11.137501
1763129327458,6.5838513,5.3647084,5.7140603,0.22892158,-1.4138465,0.084452055,-0.17410873,-0.39320543,-0.7865157,-29.38125,-24.993752,-11.137501
1763129327459,6.5838513,5.3647084,5.7140603,0.22892158,-1.4138465,0.084452055,-0.17410873,-0.39320543,-0.7865157,-31.5375,1.0125,-16.612501
1763129327470,6.5838513,5.3647084,5.7140603,0.21639885,-1.0887138,0.033597562,-0.17410873,-0.39320543,-0.7865157,-31.5375,1.0125,-16.612501
1763129327471,6.3427744,5.0009995,5.098507,0.21639885,-1.0887138,0.033597562,-0.17410873,-0.39320543,-0.7865157,-31.5375,1.0125,-16.612501
1763129327478,6.3427744,5.0009995,5.098507,0.21639885,-1.0887138,0.033597562,-0.18204536,-0.40022314,-0.78321993,-31.5375,1.0125,-16.612501
1763129327480,6.3427744,5.0009995,5.098507,0.21639885,-1.0887138,0.033597562,-0.18204536,-0.40022314,-0.78321993,-28.95,1.5937501,-17.831251
1763129327491,6.3427744,5.0009995,5.098507,0.11713332,-0.7816015,0.057726722,-0.18204536,-0.40022314,-0.78321993,-28.95,1.5937501,-17.831251
1763129327493,6.419345,4.7509494,4.3561335,0.11713332,-0.7816015,0.057726722,-0.18204536,-0.40022314,-0.78321993,-28.95,1.5937501,-17.831251
1763129327498,6.419345,4.7509494,4.3561335,0.11713332,-0.7816015,0.057726722,-0.1880521,-0.4049205,-0.7807541,-28.95,1.5937501,-17.831251
1763129327499,6.419345,4.7509494,4.3561335,0.11713332,-0.7816015,0.057726722,-0.1880521,-0.4049205,-0.7807541,-29.23125,1.7062501,-16.575
1763129327512,6.419345,4.7509494,4.3561335,-0.08872811,-0.43722647,0.06017018,-0.1880521,-0.4049205,-0.7807541,-29.23125,1.7062501,-16.575
1763129327513,6.7639112,4.730012,4.107878,-0.08872811,-0.43722647,0.06017018,-0.1880521,-0.4049205,-0.7807541,-29.23125,1.7062501,-16.575
1763129327517,6.7639112,4.730012,4.107878,-0.08872811,-0.43722647,0.06017018,-0.1880521,-0.4049205,-0.7807541,-30.675001,1.0500001,-15.468751
1763129327518,6.7639112,4.730012,4.107878,-0.08872811,-0.43722647,0.06017018,-0.19232295,-0.4063862,-0.7797917,-30.675001,1.0500001,-15.468751
1763129327533,6.7639112,4.730012,4.107878,-0.26648977,-0.06658426,-0.0140498895,-0.19232295,-0.4063862,-0.7797917,-30.675001,1.0500001,-15.468751
1763129327534,6.875776,4.5738807,4.4668016,-0.26648977,-0.06658426,-0.0140498895,-0.19232295,-0.4063862,-0.7797917,-30.675001,1.0500001,-15.468751
1763129327538,6.875776,4.5738807,4.4668016,-0.26648977,-0.06658426,-0.0140498895,-0.1941808,-0.40488198,-0.7806695,-30.675001,1.0500001,-15.468751
1763129327539,6.875776,4.5738807,4.4668016,-0.26648977,-0.06658426,-0.0140498895,-0.1941808,-0.40488198,-0.7806695,-28.500002,1.8750001,-16.10625
1763129327554,6.875776,4.5738807,4.4668016,-0.3819432,0.35766134,-0.05222894,-0.1941808,-0.40488198,-0.7806695,-28.500002,1.8750001,-16.10625
1763129327555,7.082755,4.5020957,4.8323054,-0.3819432,0.35766134,-0.05222894,-0.1941808,-0.40488198,-0.7806695,-28.500002,1.8750001,-16.10625
1763129327558,7.082755,4.5020957,4.8323054,-0.3819432,0.35766134,-0.05222894,-0.19300438,-0.40047818,-0.7831383,-28.500002,1.8750001,-16.10625
1763129327559,7.082755,4.5020957,4.8323054,-0.3819432,0.35766134,-0.05222894,-0.19300438,-0.40047818,-0.7831383,-31.031252,0.01875,-14.38125
1763129327575,7.082755,4.5020957,4.8323054,-0.41523534,1.109025,-0.110108376,-0.19300438,-0.40047818,-0.7831383,-31.031252,0.01875,-14.38125
1763129327576,6.678966,4.334598,5.18405,-0.41523534,1.109025,-0.110108376,-0.19300438,-0.40047818,-0.7831383,-31.031252,0.01875,-14.38125
1763129327578,6.678966,4.334598,5.18405,-0.41523534,1.109025,-0.110108376,-0.18565573,-0.39240497,-0.7875264,-31.031252,0.01875,-14.38125
1763129327579,6.678966,4.334598,5.18405,-0.41523534,1.109025,-0.110108376,-0.18565573,-0.39240497,-0.7875264,-29.00625,2.5687501,-15.675
1763129327596,6.678966,4.334598,5.18405,-0.36438084,1.7082833,-0.102014415,-0.18565573,-0.39240497,-0.7875264,-29.00625,2.5687501,-15.675
1763129327597,5.616553,4.331009,5.543572,-0.36438084,1.7082833,-0.102014415,-0.18565573,-0.39240497,-0.7875264,-29.00625,2.5687501,-15.675
1763129327599,5.616553,4.331009,5.543572,-0.36438084,1.7082833,-0.102014415,-0.17308213,-0.38184923,-0.79267734,-29.00625,2.5687501,-15.675
1763129327600,5.616553,4.331009,5.543572,-0.36438084,1.7082833,-0.102014415,-0.17308213,-0.38184923,-0.79267734,-28.687502,1.6500001,-18.075
1763129327619,5.616553,4.331009,5.543572,-0.35628688,1.7603595,0.013591741,-0.17308213,-0.38184923,-0.79267734,-28.687502,1.6500001,-18.075
1763129327620,5.616553,4.331009,5.543572,-0.35628688,1.7603595,0.013591741,-0.1601335,-0.3707855,-0.79699844,-28.687502,1.6500001,-18.075
1763129327621,5.616553,4.331009,5.543572,-0.35628688,1.7603595,0.013591741,-0.1601335,-0.3707855,-0.79699844,-27.6,2.71875,-17.268751
1763129327622,5.5256257,4.267001,5.852844,-0.35628688,1.7603595,0.013591741,-0.1601335,-0.3707855,-0.79699844,-27.6,2.71875,-17.268751
1763129327639,5.9294147,4.1575294,6.245267,-0.35628688,1.7603595,0.013591741,-0.1601335,-0.3707855,-0.79699844,-27.6,2.71875,-17.268751
1763129327640,5.9294147,4.1575294,6.245267,-0.35628688,1.7603595,0.013591741,-0.14852022,-0.35883126,-0.800999,-27.6,2.71875,-17.268751
1763129327641,5.9294147,4.1575294,6.245267,-0.46532625,1.6971351,0.093615025,-0.14852022,-0.35883126,-0.800999,-27.6,2.71875,-17.268751
1763129327643,5.9294147,4.1575294,6.245267,-0.46532625,1.6971351,0.093615025,-0.14852022,-0.35883126,-0.800999,-26.94375,2.8500001,-19.6875
1763129327658,5.9294147,4.1575294,6.245267,-0.46532625,1.6971351,0.093615025,-0.14852022,-0.35883126,-0.800999,-25.48125,3.1875002,-18.75
1763129327659,5.9294147,4.1575294,6.245267,-0.46532625,1.6971351,0.093615025,-0.1371852,-0.34653464,-0.8053043,-25.48125,3.1875002,-18.75
1763129327661,5.9294147,4.1575294,6.245267,-0.51144654,1.6785038,0.023823727,-0.1371852,-0.34653464,-0.8053043,-25.48125,3.1875002,-18.75
1763129327662,5.5310097,4.1144586,7.112665,-0.51144654,1.6785038,0.023823727,-0.1371852,-0.34653464,-0.8053043,-25.48125,3.1875002,-18.75
1763129327677,5.5310097,4.1144586,7.112665,-0.51144654,1.6785038,0.023823727,-0.1371852,-0.34653464,-0.8053043,-25.687502,2.325,-21.45
1763129327681,5.5310097,4.1144586,7.112665,-0.4392118,1.4801253,-0.076816246,-0.1371852,-0.34653464,-0.8053043,-25.687502,2.325,-21.45
1763129327682,5.5310097,4.1144586,7.112665,-0.4392118,1.4801253,-0.076816246,-0.12668099,-0.3357473,-0.80935264,-25.687502,2.325,-21.45
1763129327683,4.9226346,4.1551366,7.5457664,-0.4392118,1.4801253,-0.076816246,-0.12668099,-0.3357473,-0.80935264,-25.687502,2.325,-21.45
1763129327699,4.9226346,4.1551366,7.5457664,-0.4392118,1.4801253,-0.076816246,-0.12668099,-0.3357473,-0.80935264,-25.425001,3.0187502,-20.962502
1763129327701,4.9226346,4.1551366,7.5457664,-0.4392118,1.4801253,-0.076816246,-0.119237356,-0.3271201,-0.81273735,-25.425001,3.0187502,-20.962502
1763129327703,4.9226346,4.1551366,7.5457664,-0.41645706,1.0667226,-0.11377356,-0.119237356,-0.3271201,-0.81273735,-25.425001,3.0187502,-20.962502
1763129327705,4.6486564,4.3483567,7.5529447,-0.41645706,1.0667226,-0.11377356,-0.119237356,-0.3271201,-0.81273735,-25.425001,3.0187502,-20.962502
1763129327718,4.6486564,4.3483567,7.5529447,-0.41645706,1.0667226,-0.11377356,-0.119237356,-0.3271201,-0.81273735,-26.41875,1.2,-20.00625
1763129327721,4.6486564,4.3483567,7.5529447,-0.4723512,0.7351758,-0.035582874,-0.119237356,-0.3271201,-0.81273735,-26.41875,1.2,-20.00625
1763129327722,4.6486564,4.3483567,7.5529447,-0.4723512,0.7351758,-0.035582874,-0.1150145,-0.31958458,-0.8153154,-26.41875,1.2,-20.00625
1763129327723,4.3561335,4.402794,7.463812,-0.4723512,0.7351758,-0.035582874,-0.1150145,-0.31958458,-0.8153154,-26.41875,1.2,-20.00625
1763129327739,4.3561335,4.402794,7.463812,-0.4723512,0.7351758,-0.035582874,-0.1150145,-0.31958458,-0.8153154,-25.0125,3.7500002,-22.087502
1763129327743,4.3561335,4.402794,7.463812,-0.5395463,0.5345067,0.109344795,-0.1150145,-0.31958458,-0.8153154,-25.0125,3.7500002,-22.087502
1763129327744,4.3561335,4.402794,7.463812,-0.5395463,0.5345067,0.109344795,-0.11320463,-0.3123203,-0.8170159,-25.0125,3.7500002,-22.087502
1763129327745,4.2370906,4.093521,7.2969127,-0.5395463,0.5345067,0.109344795,-0.11320463,-0.3123203,-0.8170159,-25.0125,3.7500002,-22.087502
1763129327758,4.2370906,4.093521,7.2969127,-0.5395463,0.5345067,0.109344795,-0.11320463,-0.3123203,-0.8170159,-23.831251,5.7937503,-21.825
1763129327763,4.2370906,4.093521,7.2969127,-0.5395463,0.5345067,0.109344795,-0.11229644,-0.30518046,-0.81812614,-23.831251,5.7937503,-21.825
1763129327764,4.638487,4.094718,7.661818,-0.5395463,0.5345067,0.109344795,-0.11229644,-0.30518046,-0.81812614,-23.831251,5.7937503,-21.825
1763129327765,4.638487,4.094718,7.661818,-0.540768,0.4754055,0.21151192,-0.11229644,-0.30518046,-0.81812614,-23.831251,5.7937503,-21.825
1763129327777,4.638487,4.094718,7.661818,-0.540768,0.4754055,0.21151192,-0.11229644,-0.30518046,-0.81812614,-25.556252,3.9562502,-22.143751
1763129327785,4.638487,4.094718,7.661818,-0.540768,0.4754055,0.21151192,-0.11048439,-0.2986005,-0.81906295,-25.556252,3.9562502,-22.143751
1763129327786,4.638487,4.094718,7.661818,-0.44302967,0.53129965,0.19685118,-0.11048439,-0.2986005,-0.81906295,-25.556252,3.9562502,-22.143751
1763129327787,4.6325045,3.836293,8.133802,-0.44302967,0.53129965,0.19685118,-0.11048439,-0.2986005,-0.81906295,-25.556252,3.9562502,-22.143751
1763129327800,4.6325045,3.836293,8.133802,-0.44302967,0.53129965,0.19685118,-0.11048439,-0.2986005,-0.81906295,-23.625,5.5125003,-23.5125
1763129327808,4.354937,3.760321,8.649456,-0.44302967,0.53129965,0.19685118,-0.11048439,-0.2986005,-0.81906295,-23.625,5.5125003,-23.5125
1763129327809,4.354937,3.760321,8.649456,-0.21441354,0.4094321,0.17088942,-0.11048439,-0.2986005,-0.81906295,-23.625,5.5125003,-23.5125
1763129327819,4.354937,3.760321,8.649456,-0.21441354,0.4094321,0.17088942,-0.108560875,-0.29450387,-0.8193387,-23.625,5.5125003,-23.5125
1763129327820,4.354937,3.760321,8.649456,-0.21441354,0.4094321,0.17088942,-0.108560875,-0.29450387,-0.8193387,-22.59375,5.9437504,-20.1375
1763129327827,4.354937,3.760321,8.649456,-0.07040217,0.110871956,0.14599667,-0.108560875,-0.29450387,-0.8193387,-22.59375,5.9437504,-20.1375
1763129327828,4.5003014,3.7052858,8.243873,-0.07040217,0.110871956,0.14599667,-0.108560875,-0.29450387,-0.8193387,-22.59375,5.9437504,-20.1375
1763129327837,4.5003014,3.7052858,8.243873,-0.07040217,0.110871956,0.14599667,-0.10832012,-0.29307467,-0.81896496,-22.59375,5.9437504,-20.1375
1763129327838,4.5003014,3.7052858,8.243873,-0.07040217,0.110871956,0.14599667,-0.10832012,-0.29307467,-0.81896496,-24.4125,3.9,-21.6375
1763129327849,4.994419,3.6131623,7.713264,-0.07040217,0.110871956,0.14599667,-0.10832012,-0.29307467,-0.81896496,-24.4125,3.9,-21.6375
1763129327850,4.994419,3.6131623,7.713264,-0.07895427,0.10766492,0.061239194,-0.10832012,-0.29307467,-0.81896496,-24.4125,3.9,-21.6375
1763129327857,4.994419,3.6131623,7.713264,-0.07895427,0.10766492,0.061239194,-0.1079626,-0.2917434,-0.8190355,-24.4125,3.9,-21.6375
1763129327858,4.994419,3.6131623,7.713264,-0.07895427,0.10766492,0.061239194,-0.1079626,-0.2917434,-0.8190355,-23.5125,4.59375,-21.5625
1763129327869,4.994419,3.6131623,7.713264,-0.022296565,0.43600473,0.0129808765,-0.1079626,-0.2917434,-0.8190355,-23.5125,4.59375,-21.5625
1763129327869,5.002794,3.4983068,7.426125,-0.022296565,0.43600473,0.0129808765,-0.1079626,-0.2917434,-0.8190355,-23.5125,4.59375,-21.5625
1763129327878,5.002794,3.4983068,7.426125,-0.022296565,0.43600473,0.0129808765,-0.10456479,-0.2893789,-0.8195858,-23.5125,4.59375,-21.5625
1763129327878,5.002794,3.4983068,7.426125,-0.022296565,0.43600473,0.0129808765,-0.10456479,-0.2893789,-0.8195858,-25.518751,3.5062501,-19.893751
1763129327889,5.002794,3.4983068,7.426125,-0.024740024,0.286801,0.03084867,-0.10456479,-0.2893789,-0.8195858,-25.518751,3.5062501,-19.893751
1763129327890,4.3722854,3.5090744,7.3902326,-0.024740024,0.286801,0.03084867,-0.10456479,-0.2893789,-0.8195858,-25.518751,3.5062501,-19.893751
1763129327900,4.3722854,3.5090744,7.3902326,-0.024740024,0.286801,0.03084867,-0.10257293,-0.28774977,-0.8198921,-25.518751,3.5062501,-19.893751
1763129327903,4.3722854,3.5090744,7.3902326,-0.024740024,0.286801,0.03084867,-0.10257293,-0.28774977,-0.8198921,-24.843752,3.3187501,-21.0
1763129327911,4.3722854,3.5090744,7.3902326,-0.16065744,0.1386663,0.07895427,-0.10257293,-0.28774977,-0.8198921,-24.843752,3.3187501,-21.0
1763129327911,4.0737805,3.8536408,8.00459,-0.16065744,0.1386663,0.07895427,-0.10257293,-0.28774977,-0.8198921,-24.843752,3.3187501,-21.0
1763129327917,4.0737805,3.8536408,8.00459,-0.16065744,0.1386663,0.07895427,-0.10248666,-0.28563714,-0.8201095,-24.843752,3.3187501,-21.0
1763129327918,4.0737805,3.8536408,8.00459,-0.16065744,0.1386663,0.07895427,-0.10248666,-0.28563714,-0.8201095,-21.73125,6.9375005,-20.8875
1763129327933,4.0737805,3.8536408,8.00459,-0.21395539,-0.027794348,0.15622866,-0.10248666,-0.28563714,-0.8201095,-21.73125,6.9375005,-20.8875
1763129327934,3.9212382,3.6693935,8.2456665,-0.21395539,-0.027794348,0.15622866,-0.10248666,-0.28563714,-0.8201095,-21.73125,6.9375005,-20.8875
1763129327938,3.9212382,3.6693935,8.2456665,-0.21395539,-0.027794348,0.15622866,-0.1040975,-0.2838247,-0.8197961,-21.73125,6.9375005,-20.8875
1763129327938,3.9212382,3.6693935,8.2456665,-0.21395539,-0.027794348,0.15622866,-0.1040975,-0.2838247,-0.8197961,-24.993752,4.2562504,-20.85
1763129327962,3.9212382,3.6693935,8.2456665,-0.1244637,-0.13423753,0.18555018,-0.1040975,-0.2838247,-0.8197961,-24.993752,4.2562504,-20.85
1763129327963,4.0642095,3.731607,7.9184484,-0.1244637,-0.13423753,0.18555018,-0.1040975,-0.2838247,-0.8197961,-24.993752,4.2562504,-20.85
1763129327963,4.0642095,3.731607,7.9184484,-0.1244637,-0.13423753,0.18555018,-0.10623837,-0.28321064,-0.81898737,-24.993752,4.2562504,-20.85
1763129327964,4.0642095,3.731607,7.9184484,-0.1244637,-0.13423753,0.18555018,-0.10623837,-0.28321064,-0.81898737,-25.29375,3.7125,-20.34375
