timestamp,accX,accY,accZ,gyroX,gyroY,gyroZ,rotX,rotY,rotZ,magX,magY,magZ
1763129336370,6.005985,4.063013,6.489335,-0.0858265,-0.06536253,0.060017463,0.08769197,-0.38482645,-0.35254967,-27.825,2.6437502,-18.84375
1763129336370,5.99761,3.9637108,6.4606214,-0.0858265,-0.06536253,0.060017463,0.08769197,-0.38482645,-0.35254967,-27.825,2.6437502,-18.84375
1763129336378,5.99761,3.9637108,6.4606214,-0.0858265,-0.06536253,0.060017463,0.08660272,-0.38556862,-0.35164145,-27.825,2.6437502,-18.84375
1763129336378,5.99761,3.9637108,6.4606214,-0.0858265,-0.06536253,0.060017463,0.08660272,-0.38556862,-0.35164145,-31.987501,-0.075,-18.13125
1763129336391,6.0029936,4.0163527,6.5982084,-0.0858265,-0.06536253,0.060017463,0.08660272,-0.38556862,-0.35164145,-31.987501,-0.075,-18.13125
1763129336392,6.0029936,4.0163527,6.5982084,-0.15332706,0.014813471,0.008857539,0.08660272,-0.38556862,-0.35164145,-31.987501,-0.075,-18.13125
1763129336397,6.0029936,4.0163527,6.5982084,-0.15332706,0.014813471,0.008857539,0.08533794,-0.38529956,-0.35133368,-31.987501,-0.075,-18.13125
1763129336397,6.0029936,4.0163527,6.5982084,-0.15332706,0.014813471,0.008857539,0.08533794,-0.38529956,-0.35133368,-35.475002,2.0625,-12.6
1763129336412,6.0029936,4.0163527,6.5982084,-0.14492767,0.04734202,-0.02535089,0.08533794,-0.38529956,-0.35133368,-35.475002,2.0625,-12.6
1763129336414,5.77747,4.01396,6.7525454,-0.14492767,0.04734202,-0.02535089,0.08533794,-0.38529956,-0.35133368,-35.475002,2.0625,-12.6
1763129336417,5.77747,4.01396,6.7525454,-0.14492767,0.04734202,-0.02535089,0.08436212,-0.38465405,-0.3515548,-35.475002,2.0625,-12.6
1763129336418,5.77747,4.01396,6.7525454,-0.14492767,0.04734202,-0.02535089,0.08436212,-0.38465405,-0.3515548,-33.075,0.82500005,-14.606251
1763129336433,5.77747,4.01396,6.7525454,-0.09560034,0.028252495,-0.0021380268,0.08436212,-0.38465405,-0.3515548,-33.075,0.82500005,-14.606251
1763129336436,5.6261244,3.9780676,6.793822,-0.09560034,0.028252495,-0.0021380268,0.08436212,-0.38465405,-0.3515548,-33.075,0.82500005,-14.606251
1763129336438,5.6261244,3.9780676,6.793822,-0.09560034,0.028252495,-0.0021380268,0.08359776,-0.38402125,-0.3519823,-33.075,0.82500005,-14.606251
1763129336439,5.6261244,3.9780676,6.793822,-0.09560034,0.028252495,-0.0021380268,0.08359776,-0.38402125,-0.3519823,-28.931252,1.5937501,-18.581251
1763129336454,5.6261244,3.9780676,6.793822,-0.0650571,0.002290743,0.029626941,0.08359776,-0.38402125,-0.3519823,-28.931252,1.5937501,-18.581251
1763129336455,5.721837,3.952943,6.6825557,-0.0650571,0.002290743,0.029626941,0.08359776,-0.38402125,-0.3519823,-28.931252,1.5937501,-18.581251
1763129336459,5.721837,3.952943,6.6825557,-0.0650571,0.002290743,0.029626941,0.08359776,-0.38402125,-0.3519823,-30.2625,1.125,-17.94375
1763129336460,5.721837,3.952943,6.6825557,-0.0650571,0.002290743,0.029626941,0.08283929,-0.38357276,-0.3523365,-30.2625,1.125,-17.94375
1763129336475,5.721837,3.952943,6.6825557,-0.05818487,0.008704823,0.022601997,0.08283929,-0.38357276,-0.3523365,-30.2625,1.125,-17.94375
1763129336475,5.849255,3.9625144,6.586244,-0.05818487,0.008704823,0.022601997,0.08283929,-0.38357276,-0.3523365,-30.2625,1.125,-17.94375
1763129336477,5.849255,3.9625144,6.586244,-0.05818487,0.008704823,0.022601997,0.08225796,-0.38329485,-0.35237044,-30.2625,1.125,-17.94375
1763129336477,5.849255,3.9625144,6.586244,-0.05818487,0.008704823,0.022601997,0.08225796,-0.38329485,-0.35237044,-32.53125,-2.1375,-18.806252
1763129336496,5.849255,3.9625144,6.586244,-0.055588696,0.016798781,-0.004581486,0.08225796,-0.38329485,-0.35237044,-32.53125,-2.1375,-18.806252
1763129336498,5.8133626,3.9242291,6.5276203,-0.055588696,0.016798781,-0.004581486,0.08225796,-0.38329485,-0.35237044,-32.53125,-2.1375,-18.806252
1763129336499,5.8133626,3.9242291,6.5276203,-0.055588696,0.016798781,-0.004581486,0.08193954,-0.3831611,-0.35223725,-32.53125,-2.1375,-18.806252
1763129336500,5.8133626,3.9242291,6.5276203,-0.055588696,0.016798781,-0.004581486,0.08193954,-0.3831611,-0.35223725,-31.25625,1.7062501,-17.925001
1763129336518,5.8133626,3.9242291,6.5276203,-0.055588696,0.016798781,-0.004581486,0.08166295,-0.3828746,-0.35221773,-31.25625,1.7062501,-17.925001
1763129336519,5.8133626,3.9242291,6.5276203,-0.055588696,0.016798781,-0.004581486,0.08166295,-0.3828746,-0.35221773,-29.456251,0.975,-19.331251
1763129336520,5.8133626,3.9242291,6.5276203,-0.064140804,0.031459536,-0.018936807,0.08166295,-0.3828746,-0.35221773,-29.456251,0.975,-19.331251
1763129336521,5.651847,3.8937206,6.5551376,-0.064140804,0.031459536,-0.018936807,0.08166295,-0.3828746,-0.35221773,-29.456251,0.975,-19.331251
1763129336539,5.651847,3.8937206,6.5551376,-0.064140804,0.031459536,-0.018936807,0.08124137,-0.38230118,-0.35236987,-29.456251,0.975,-19.331251
1763129336540,5.651847,3.8937206,6.5551376,-0.07391464,0.04092794,-0.0016798781,0.08124137,-0.38230118,-0.35236987,-29.456251,0.975,-19.331251
1763129336541,5.651847,3.8937206,6.5551376,-0.07391464,0.04092794,-0.0016798781,0.08124137,-0.38230118,-0.35236987,-26.1375,3.2062502,-18.6375
1763129336542,5.6823554,3.964309,6.629315,-0.07391464,0.04092794,-0.0016798781,0.08124137,-0.38230118,-0.35236987,-26.1375,3.2062502,-18.6375
1763129336557,5.6823554,3.964309,6.629315,-0.07391464,0.04092794,-0.0016798781,0.08124137,-0.38230118,-0.35236987,-29.718752,0.93750006,-17.8875
1763129336558,5.6823554,3.964309,6.629315,-0.06826414,0.052381653,0.009315688,0.08124137,-0.38230118,-0.35236987,-29.718752,0.93750006,-17.8875
1763129336559,5.6823554,3.964309,6.629315,-0.06826414,0.052381653,0.009315688,0.08095683,-0.381648,-0.3523838,-29.718752,0.93750006,-17.8875
1763129336560,5.7224355,3.9756749,6.68435,-0.06826414,0.052381653,0.009315688,0.08095683,-0.381648,-0.3523838,-29.718752,0.93750006,-17.8875
1763129336579,5.7224355,3.9756749,6.68435,-0.06826414,0.052381653,0.009315688,0.08095683,-0.381648,-0.3523838,-28.593752,1.1812501,-19.125
1763129336581,5.7224355,3.9756749,6.68435,-0.06826414,0.052381653,0.009315688,0.080585785,-0.38101187,-0.35243985,-28.593752,1.1812501,-19.125
1763129336581,5.7224355,3.9756749,6.68435,-0.075594515,0.047952887,0.0074830935,0.080585785,-0.38101187,-0.35243985,-28.593752,1.1812501,-19.125
1763129336582,5.757131,3.9541395,6.6460648,-0.075594515,0.047952887,0.0074830935,0.080585785,-0.38101187,-0.35243985,-28.593752,1.1812501,-19.125
1763129336598,5.757131,3.9541395,6.6460648,-0.075594515,0.047952887,0.0074830935,0.080585785,-0.38101187,-0.35243985,-29.1,2.68125,-18.91875
1763129336601,5.757131,3.9541395,6.6460648,-0.093615025,0.04780017,6.108648E-4,0.080585785,-0.38101187,-0.35243985,-29.1,2.68125,-18.91875
1763129336602,5.757131,3.9541395,6.6460648,-0.093615025,0.04780017,6.108648E-4,0.08009602,-0.38039115,-0.3524877,-29.1,2.68125,-18.91875
1763129336603,5.7655063,3.8985064,6.6981087,-0.093615025,0.04780017,6.108648E-4,0.08009602,-0.38039115,-0.3524877,-29.1,2.68125,-18.91875
1763129336618,5.7655063,3.8985064,6.6981087,-0.093615025,0.04780017,6.108648E-4,0.08009602,-0.38039115,-0.3524877,-30.431252,2.0625,-17.625
1763129336622,5.7655063,3.8985064,6.6981087,-0.093615025,0.04780017,6.108648E-4,0.07922469,-0.37954298,-0.3527426,-30.431252,2.0625,-17.625
1763129336622,5.7655063,3.8985064,6.6981087,-0.12721258,0.05589413,-1.527162E-4,0.07922469,-0.37954298,-0.3527426,-30.431252,2.0625,-17.625
1763129336623,5.7696934,3.8572302,6.619744,-0.12721258,0.05589413,-1.527162E-4,0.07922469,-0.37954298,-0.3527426,-30.431252,2.0625,-17.625
1763129336637,5.7696934,3.8572302,6.619744,-0.12721258,0.05589413,-1.527162E-4,0.07922469,-0.37954298,-0.3527426,-29.737501,3.2062502,-15.76875
1763129336642,5.7696934,3.8572302,6.619744,-0.16630794,0.065667965,-0.002290743,0.07922469,-0.37954298,-0.3527426,-29.737501,3.2062502,-15.76875
1763129336643,5.7696934,3.8572302,6.619744,-0.16630794,0.065667965,-0.002290743,0.078100316,-0.37856174,-0.35299125,-29.737501,3.2062502,-15.76875
1763129336643,5.6889358,3.8488553,6.7698936,-0.16630794,0.065667965,-0.002290743,0.078100316,-0.37856174,-0.35299125,-29.737501,3.2062502,-15.76875
1763129336657,5.6889358,3.8488553,6.7698936,-0.16630794,0.065667965,-0.002290743,0.078100316,-0.37856174,-0.35299125,-32.756252,1.8750001,-13.875001
1763129336664,5.6889358,3.8488553,6.7698936,-0.16630794,0.065667965,-0.002290743,0.076852635,-0.37734458,-0.3532889,-32.756252,1.8750001,-13.875001
1763129336665,5.6889358,3.8488553,6.7698936,-0.16264275,0.07391464,0.026725333,0.076852635,-0.37734458,-0.3532889,-32.756252,1.8750001,-13.875001
1763129336666,5.5944195,3.9020956,6.853044,-0.16264275,0.07391464,0.026725333,0.076852635,-0.37734458,-0.3532889,-32.756252,1.8750001,-13.875001
1763129336679,5.5944195,3.9020956,6.853044,-0.16264275,0.07391464,0.026725333,0.076852635,-0.37734458,-0.3532889,-33.6375,-1.8937501,-16.462502
1763129336685,5.5944195,3.9020956,6.853044,-0.20173809,0.066126116,0.11056653,0.076852635,-0.37734458,-0.3532889,-33.6375,-1.8937501,-16.462502
1763129336686,5.5944195,3.9020956,6.853044,-0.20173809,0.066126116,0.11056653,0.07504696,-0.37598976,-0.35316652,-33.6375,-1.8937501,-16.462502
1763129336688,5.552545,3.8727834,6.734599,-0.20173809,0.066126116,0.11056653,0.07504696,-0.37598976,-0.35316652,-33.6375,-1.8937501,-16.462502
1763129336698,5.552545,3.8727834,6.734599,-0.20173809,0.066126116,0.11056653,0.07504696,-0.37598976,-0.35316652,-28.800001,3.2250001,-19.725
1763129336706,5.552545,3.8727834,6.734599,-0.27229297,0.15500695,0.21884231,0.07504696,-0.37598976,-0.35316652,-28.800001,3.2250001,-19.725
1763129336707,5.5657053,3.8297126,6.5288167,-0.27229297,0.15500695,0.21884231,0.07504696,-0.37598976,-0.35316652,-28.800001,3.2250001,-19.725
1763129336717,5.5657053,3.8297126,6.5288167,-0.27229297,0.15500695,0.21884231,0.07272306,-0.37378654,-0.3520309,-28.800001,3.2250001,-19.725
1763129336718,5.5657053,3.8297126,6.5288167,-0.27229297,0.15500695,0.21884231,0.07272306,-0.37378654,-0.3520309,-29.250002,1.85625,-17.53125
1763129336726,5.5657053,3.8297126,6.5288167,-0.38744098,0.41645706,0.2603811,0.07272306,-0.37378654,-0.3520309,-29.250002,1.85625,-17.53125
1763129336727,5.608776,3.6257246,6.2584276,-0.38744098,0.41645706,0.2603811,0.07272306,-0.37378654,-0.3520309,-29.250002,1.85625,-17.53125
1763129336740,5.608776,3.6257246,6.2584276,-0.38744098,0.41645706,0.2603811,0.07272306,-0.37378654,-0.3520309,-29.643751,0.46875003,-18.337502
1763129336741,5.608776,3.6257246,6.2584276,-0.38744098,0.41645706,0.2603811,0.07047096,-0.36917418,-0.35016847,-29.643751,0.46875003,-18.337502
1763129336748,5.608776,3.6257246,6.2584276,-0.49189886,0.7165444,0.23472479,0.07047096,-0.36917418,-0.35016847,-29.643751,0.46875003,-18.337502
1763129336748,5.569295,3.4743786,6.5659056,-0.49189886,0.7165444,0.23472479,0.07047096,-0.36917418,-0.35016847,-29.643751,0.46875003,-18.337502
1763129336758,5.569295,3.4743786,6.5659056,-0.49189886,0.7165444,0.23472479,0.068531245,-0.36190417,-0.3479559,-29.643751,0.46875003,-18.337502
1763129336759,5.569295,3.4743786,6.5659056,-0.49189886,0.7165444,0.23472479,0.068531245,-0.36190417,-0.3479559,-26.681252,4.2000003,-18.75
1763129336771,5.569295,3.4743786,6.5659056,-0.51541716,0.7376192,0.19486587,0.068531245,-0.36190417,-0.3479559,-26.681252,4.2000003,-18.75
1763129336772,5.751149,3.0436704,6.9170523,-0.51541716,0.7376192,0.19486587,0.068531245,-0.36190417,-0.3479559,-26.681252,4.2000003,-18.75
1763129336780,5.751149,3.0436704,6.9170523,-0.51541716,0.7376192,0.19486587,0.06627934,-0.35414234,-0.34646443,-26.681252,4.2000003,-18.75
1763129336781,5.751149,3.0436704,6.9170523,-0.51541716,0.7376192,0.19486587,0.06627934,-0.35414234,-0.34646443,-28.66875,2.30625,-18.54375
1763129336791,5.751149,3.0436704,6.9170523,-0.62949616,0.49388418,0.12156209,0.06627934,-0.35414234,-0.34646443,-28.66875,2.30625,-18.54375
1763129336792,5.892326,2.8677979,6.672386,-0.62949616,0.49388418,0.12156209,0.06627934,-0.35414234,-0.34646443,-28.66875,2.30625,-18.54375
1763129336798,5.892326,2.8677979,6.672386,-0.62949616,0.49388418,0.12156209,0.061449666,-0.34801942,-0.34653822,-28.66875,2.30625,-18.54375
1763129336799,5.892326,2.8677979,6.672386,-0.62949616,0.49388418,0.12156209,0.061449666,-0.34801942,-0.34653822,-28.931252,2.4,-19.087502
1763129336813,5.892326,2.8677979,6.672386,-0.8804089,0.77549285,0.116675176,0.061449666,-0.34801942,-0.34653822,-28.931252,2.4,-19.087502
1763129336814,5.299504,3.12383,5.8307104,-0.8804089,0.77549285,0.116675176,0.061449666,-0.34801942,-0.34653822,-28.931252,2.4,-19.087502
1763129336818,5.299504,3.12383,5.8307104,-0.8804089,0.77549285,0.116675176,0.055548362,-0.33899844,-0.34638974,-28.931252,2.4,-19.087502
1763129336819,5.299504,3.12383,5.8307104,-0.8804089,0.77549285,0.116675176,0.055548362,-0.33899844,-0.34638974,-27.468752,4.5,-19.81875
1763129336832,5.299504,3.12383,5.8307104,-1.1015419,1.6983567,0.18600832,0.055548362,-0.33899844,-0.34638974,-27.468752,4.5,-19.81875
1763129336833,5.042874,3.00718,6.623333,-1.1015419,1.6983567,0.18600832,0.055548362,-0.33899844,-0.34638974,-27.468752,4.5,-19.81875
1763129336837,5.042874,3.00718,6.623333,-1.1015419,1.6983567,0.18600832,0.055548362,-0.33899844,-0.34638974,-26.79375,3.3750002,-18.5625
1763129336840,5.042874,3.00718,6.623333,-1.1015419,1.6983567,0.18600832,0.052359372,-0.32139647,-0.34431356,-26.79375,3.3750002,-18.5625
1763129336855,5.042874,3.00718,6.623333,-1.0558797,2.1369576,0.26419902,0.052359372,-0.32139647,-0.34431356,-26.79375,3.3750002,-18.5625
1763129336856,4.4488554,2.498107,8.532805,-1.0558797,2.1369576,0.26419902,0.052359372,-0.32139647,-0.34431356,-26.79375,3.3750002,-18.5625
1763129336859,4.4488554,2.498107,8.532805,-1.0558797,2.1369576,0.26419902,0.050505746,-0.29935822,-0.3416694,-26.79375,3.3750002,-18.5625
1763129336860,4.4488554,2.498107,8.532805,-1.0558797,2.1369576,0.26419902,0.050505746,-0.29935822,-0.3416694,-26.812502,5.26875,-21.956251
1763129336874,4.2245283,2.8426733,8.19123,-1.0558797,2.1369576,0.26419902,0.050505746,-0.29935822,-0.3416694,-26.812502,5.26875,-21.956251
1763129336875,4.2245283,2.8426733,8.19123,-0.89338976,1.7537928,0.39813113,0.050505746,-0.29935822,-0.3416694,-26.812502,5.26875,-21.956251
1763129336880,4.2245283,2.8426733,8.19123,-0.89338976,1.7537928,0.39813113,0.050505746,-0.29935822,-0.3416694,-26.75625,5.6062503,-20.8125
1763129336895,3.9804604,2.405385,7.87119,-0.89338976,1.7537928,0.39813113,0.050505746,-0.29935822,-0.3416694,-26.75625,5.6062503,-20.8125
1763129336898,3.9804604,2.405385,7.87119,-0.89338976,1.7537928,0.39813113,0.04712021,-0.2798477,-0.33989015,-26.75625,5.6062503,-20.8125
1763129336899,3.9804604,2.405385,7.87119,-0.89338976,1.7537928,0.39813113,0.04046766,-0.26174384,-0.33742973,-26.75625,5.6062503,-20.8125
1763129336900,3.9804604,2.405385,7.87119,-1.1340705,1.5176935,0.51908237,0.04046766,-0.26174384,-0.33742973,-26.75625,5.6062503,-20.8125
1763129336901,3.9804604,2.405385,7.87119,-1.1340705,1.5176935,0.51908237,0.04046766,-0.26174384,-0.33742973,-24.69375,5.7562504,-22.518751
1763129336916,3.9804604,2.405385,7.87119,-1.4969242,1.7883066,0.51083565,0.04046766,-0.26174384,-0.33742973,-24.69375,5.7562504,-22.518751
1763129336917,3.8111682,2.1984057,8.349156,-1.4969242,1.7883066,0.51083565,0.04046766,-0.26174384,-0.33742973,-24.69375,5.7562504,-22.518751
1763129336918,3.8111682,2.1984057,8.349156,-1.4969242,1.7883066,0.51083565,0.031317096,-0.23971502,-0.33567035,-24.69375,5.7562504,-22.518751
1763129336919,3.8111682,2.1984057,8.349156,-1.4969242,1.7883066,0.51083565,0.031317096,-0.23971502,-0.33567035,-23.56875,6.6562505,-23.025002
1763129336938,3.8111682,2.1984057,8.349156,-1.4969242,1.7883066,0.51083565,0.031317096,-0.23971502,-0.33567035,-22.837502,7.6312504,-22.7625
1763129336939,3.8111682,2.1984057,8.349156,-1.6989677,1.5322015,0.38011062,0.031317096,-0.23971502,-0.33567035,-22.837502,7.6312504,-22.7625
1763129336944,3.8111682,2.1984057,8.349156,-1.6989677,1.5322015,0.38011062,0.019650353,-0.21923263,-0.3355425,-22.837502,7.6312504,-22.7625
1763129336945,3.554538,2.9563324,9.450453,-1.6989677,1.5322015,0.38011062,0.019650353,-0.21923263,-0.3355425,-22.837502,7.6312504,-22.7625
1763129336959,3.554538,2.9563324,9.450453,-1.6989677,1.5322015,0.38011062,0.009600714,-0.20678076,-0.33426464,-22.837502,7.6312504,-22.7625
1763129336959,3.4085758,2.1762722,10.726426,-1.6989677,1.5322015,0.38011062,0.009600714,-0.20678076,-0.33426464,-22.837502,7.6312504,-22.7625
1763129336960,3.4085758,2.1762722,10.726426,-1.295186,0.8298598,0.40255988,0.009600714,-0.20678076,-0.33426464,-22.837502,7.6312504,-22.7625
1763129336963,3.4085758,2.1762722,10.726426,-1.295186,0.8298598,0.40255988,0.009600714,-0.20678076,-0.33426464,-22.837502,7.6312504,-22.7625
1763129336978,3.4085758,2.1762722,10.726426,-1.295186,0.8298598,0.40255988,0.009600714,-0.20678076,-0.33426464,-23.025002,8.71875,-21.300001
1763129336979,3.4085758,2.1762722,10.726426,-0.6012437,0.32681265,0.5419898,0.009600714,-0.20678076,-0.33426464,-23.025002,8.71875,-21.300001
1763129336980,3.4085758,2.1762722,10.726426,-0.6012437,0.32681265,0.5419898,0.0039607864,-0.20140111,-0.3304524,-23.025002,8.71875,-21.300001
1763129336982,3.426522,2.62373,10.96511,-0.6012437,0.32681265,0.5419898,0.0039607864,-0.20140111,-0.3304524,-23.025002,8.71875,-21.300001
1763129336997,3.426522,2.62373,10.96511,-0.6012437,0.32681265,0.5419898,0.0039607864,-0.20140111,-0.3304524,-23.625,6.9750004,-22.06875
1763129336999,4.467998,3.2285159,10.64507,-0.6012437,0.32681265,0.5419898,0.0039607864,-0.20140111,-0.3304524,-23.625,6.9750004,-22.06875
1763129337000,4.467998,3.2285159,10.64507,0.092087865,-0.007177661,0.47112945,0.0039607864,-0.20140111,-0.3304524,-23.625,6.9750004,-22.06875
1763129337001,4.467998,3.2285159,10.64507,0.092087865,-0.007177661,0.47112945,0.0041441447,-0.2016577,-0.32580987,-23.625,6.9750004,-22.06875
1763129337018,4.467998,3.2285159,10.64507,0.092087865,-0.007177661,0.47112945,0.0041441447,-0.2016577,-0.32580987,-21.31875,9.262501,-21.84375
1763129337022,4.467998,3.2285159,10.64507,0.092087865,-0.007177661,0.47112945,0.010121315,-0.20307243,-0.32351097,-21.31875,9.262501,-21.84375
1763129337023,4.2317066,1.9848464,10.768898,0.092087865,-0.007177661,0.47112945,0.010121315,-0.20307243,-0.32351097,-21.31875,9.262501,-21.84375
1763129337026,4.2317066,1.9848464,10.768898,0.56550807,0.068722285,0.07956514,0.010121315,-0.20307243,-0.32351097,-21.31875,9.262501,-21.84375
1763129337038,4.2317066,1.9848464,10.768898,0.56550807,0.068722285,0.07956514,0.010121315,-0.20307243,-0.32351097,-22.0125,8.793751,-22.237501
1763129337041,4.2317066,1.9848464,10.768898,0.72188944,0.74097896,-0.17088942,0.010121315,-0.20307243,-0.32351097,-22.0125,8.793751,-22.237501
1763129337042,3.6723845,1.4153546,10.563115,0.72188944,0.74097896,-0.17088942,0.010121315,-0.20307243,-0.32351097,-22.0125,8.793751,-22.237501
1763129337043,3.6723845,1.4153546,10.563115,0.72188944,0.74097896,-0.17088942,0.020013804,-0.19832686,-0.32348981,-22.0125,8.793751,-22.237501
1763129337057,3.6723845,1.4153546,10.563115,0.72188944,0.74097896,-0.17088942,0.020013804,-0.19832686,-0.32348981,-20.19375,8.56875,-21.7875
1763129337063,3.6723845,1.4153546,10.563115,0.6895136,1.0610721,-0.2819141,0.020013804,-0.19832686,-0.32348981,-20.19375,8.56875,-21.7875
1763129337064,3.6723845,1.4153546,10.563115,0.6895136,1.0610721,-0.2819141,0.030691475,-0.1902209,-0.32479912,-20.19375,8.56875,-21.7875
1763129337066,3.345166,2.3192434,9.272786,0.6895136,1.0610721,-0.2819141,0.030691475,-0.1902209,-0.32479912,-20.19375,8.56875,-21.7875
1763129337077,3.345166,2.3192434,9.272786,0.6895136,1.0610721,-0.2819141,0.030691475,-0.1902209,-0.32479912,-21.50625,7.2937503,-22.743752
1763129337083,2.7649066,2.1714866,9.239286,0.6895136,1.0610721,-0.2819141,0.030691475,-0.1902209,-0.32479912,-21.50625,7.2937503,-22.743752
1763129337084,2.7649066,2.1714866,9.239286,0.60689414,1.0386229,-0.36819875,0.030691475,-0.1902209,-0.32479912,-21.50625,7.2937503,-22.743752
1763129337085,2.7649066,2.1714866,9.239286,0.60689414,1.0386229,-0.36819875,0.040983666,-0.18213195,-0.32652658,-21.50625,7.2937503,-22.743752
1763129337098,2.7649066,2.1714866,9.239286,0.60689414,1.0386229,-0.36819875,0.040983666,-0.18213195,-0.32652658,-19.706251,8.83125,-22.63125
1763129337105,2.7649066,2.1714866,9.239286,0.60689414,1.0386229,-0.36819875,0.051517196,-0.17279635,-0.32807294,-19.706251,8.83125,-22.63125
1763129337107,1.5296118,0.85842514,8.691928,0.60689414,1.0386229,-0.36819875,0.051517196,-0.17279635,-0.32807294,-19.706251,8.83125,-22.63125
1763129337108,1.5296118,0.85842514,8.691928,0.60949033,1.1583524,-0.3251328,0.051517196,-0.17279635,-0.32807294,-19.706251,8.83125,-22.63125
1763129337118,1.5296118,0.85842514,8.691928,0.60949033,1.1583524,-0.3251328,0.051517196,-0.17279635,-0.32807294,-20.456251,6.4125004,-23.71875
1763129337126,1.5296118,0.85842514,8.691928,0.504727,0.7278454,-0.042607818,0.051517196,-0.17279635,-0.32807294,-20.456251,6.4125004,-23.71875
1763129337127,1.1688938,-0.83090764,8.687741,0.504727,0.7278454,-0.042607818,0.051517196,-0.17279635,-0.32807294,-20.456251,6.4125004,-23.71875
1763129337139,1.1688938,-0.83090764,8.687741,0.504727,0.7278454,-0.042607818,0.058718532,-0.1671433,-0.32775575,-20.456251,6.4125004,-23.71875
1763129337139,1.1688938,-0.83090764,8.687741,0.504727,0.7278454,-0.042607818,0.058718532,-0.1671433,-0.32775575,-18.393751,8.793751,-25.556252
1763129337147,1.7294126,0.10707881,8.636295,0.504727,0.7278454,-0.042607818,0.058718532,-0.1671433,-0.32775575,-18.393751,8.793751,-25.556252
1763129337148,1.7294126,0.10707881,8.636295,0.56902057,-0.23732096,0.13790272,0.058718532,-0.1671433,-0.32775575,-18.393751,8.793751,-25.556252
1763129337157,1.7294126,0.10707881,8.636295,0.56902057,-0.23732096,0.13790272,0.062412616,-0.17102912,-0.3266962,-18.393751,8.793751,-25.556252
1763129337158,1.7294126,0.10707881,8.636295,0.56902057,-0.23732096,0.13790272,0.062412616,-0.17102912,-0.3266962,-20.23125,6.61875,-23.85
1763129337168,1.7294126,0.10707881,8.636295,0.47693267,-0.80603606,0.08933897,0.062412616,-0.17102912,-0.3266962,-20.23125,6.61875,-23.85
1763129337169,2.8199415,1.643271,8.518449,0.47693267,-0.80603606,0.08933897,0.062412616,-0.17102912,-0.3266962,-20.23125,6.61875,-23.85
1763129337177,2.8199415,1.643271,8.518449,0.47693267,-0.80603606,0.08933897,0.06357993,-0.18022868,-0.32620698,-20.23125,6.61875,-23.85
1763129337179,2.8199415,1.643271,8.518449,0.47693267,-0.80603606,0.08933897,0.06357993,-0.18022868,-0.32620698,-20.23125,6.61875,-23.85
1763129337189,2.8199415,1.643271,8.518449,0.32024586,-0.8032872,-0.009926553,0.06357993,-0.18022868,-0.32620698,-20.23125,6.61875,-23.85
1763129337190,2.8875387,2.0757737,9.046664,0.32024586,-0.8032872,-0.009926553,0.06357993,-0.18022868,-0.32620698,-20.23125,6.61875,-23.85
1763129337198,2.8875387,2.0757737,9.046664,0.32024586,-0.8032872,-0.009926553,0.06376409,-0.18908584,-0.3264888,-20.23125,6.61875,-23.85
1763129337199,2.8875387,2.0757737,9.046664,0.32024586,-0.8032872,-0.009926553,0.06376409,-0.18908584,-0.3264888,-20.831251,7.275,-24.50625
1763129337209,2.8875387,2.0757737,9.046664,0.5196932,-0.6704241,0.005497783,0.06376409,-0.18908584,-0.3264888,-20.831251,7.275,-24.50625
1763129337210,2.5938199,2.0578275,9.292527,0.5196932,-0.6704241,0.005497783,0.06376409,-0.18908584,-0.3264888,-20.831251,7.275,-24.50625
1763129337219,2.5938199,2.0578275,9.292527,0.5196932,-0.6704241,0.005497783,0.06636896,-0.19728628,-0.32607728,-20.831251,7.275,-24.50625
1763129337219,2.5938199,2.0578275,9.292527,0.5196932,-0.6704241,0.005497783,0.06636896,-0.19728628,-0.32607728,-18.54375,8.118751,-24.50625
1763129337231,2.5938199,2.0578275,9.292527,1.097724,-0.5894845,0.0140498895,0.06636896,-0.19728628,-0.32607728,-18.54375,8.118751,-24.50625
1763129337232,2.8426733,2.4945176,9.463016,1.097724,-0.5894845,0.0140498895,0.06636896,-0.19728628,-0.32607728,-18.54375,8.118751,-24.50625
1763129337237,2.8426733,2.4945176,9.463016,1.097724,-0.5894845,0.0140498895,0.07474172,-0.2065442,-0.32450283,-18.54375,8.118751,-24.50625
1763129337238,2.8426733,2.4945176,9.463016,1.097724,-0.5894845,0.0140498895,0.07474172,-0.2065442,-0.32450283,-19.931252,7.1625004,-24.206251
1763129337252,2.8426733,2.4945176,9.463016,1.6021456,-0.33689192,-0.10720677,0.07474172,-0.2065442,-0.32450283,-19.931252,7.1625004,-24.206251
1763129337253,2.9910283,2.6626134,9.455238,1.6021456,-0.33689192,-0.10720677,0.07474172,-0.2065442,-0.32450283,-19.931252,7.1625004,-24.206251
1763129337258,2.9910283,2.6626134,9.455238,1.6021456,-0.33689192,-0.10720677,0.08908415,-0.21496944,-0.32272542,-19.931252,7.1625004,-24.206251
1763129337259,2.9910283,2.6626134,9.455238,1.6021456,-0.33689192,-0.10720677,0.08908415,-0.21496944,-0.32272542,-20.1,5.8500004,-23.90625
1763129337273,2.9910283,2.6626134,9.455238,1.1837032,0.27427828,-0.05589413,0.08908415,-0.21496944,-0.32272542,-20.1,5.8500004,-23.90625
1763129337274,2.7936203,2.9706893,7.135397,1.1837032,0.27427828,-0.05589413,0.08908415,-0.21496944,-0.32272542,-20.1,5.8500004,-23.90625
1763129337279,2.7936203,2.9706893,7.135397,1.1837032,0.27427828,-0.05589413,0.10128291,-0.21614976,-0.320771,-20.1,5.8500004,-23.90625
1763129337280,2.7936203,2.9706893,7.135397,1.1837032,0.27427828,-0.05589413,0.10128291,-0.21614976,-0.320771,-19.10625,6.0750003,-24.88125
1763129337294,2.7936203,2.9706893,7.135397,0.53236866,-0.1301142,0.10033454,0.10128291,-0.21614976,-0.320771,-19.10625,6.0750003,-24.88125
1763129337295,2.7008986,3.4390843,6.988837,0.53236866,-0.1301142,0.10033454,0.10128291,-0.21614976,-0.320771,-19.10625,6.0750003,-24.88125
1763129337299,2.7008986,3.4390843,6.988837,0.53236866,-0.1301142,0.10033454,0.105760306,-0.21935043,-0.31887165,-19.10625,6.0750003,-24.88125
1763129337301,2.7008986,3.4390843,6.988837,0.53236866,-0.1301142,0.10033454,0.105760306,-0.21935043,-0.31887165,-18.075,7.5937505,-24.993752
1763129337315,2.7008986,3.4390843,6.988837,0.17043127,-0.42042768,0.1791361,0.105760306,-0.21935043,-0.31887165,-18.075,7.5937505,-24.993752
1763129337316,3.1645079,3.4085758,8.194819,0.17043127,-0.42042768,0.1791361,0.105760306,-0.21935043,-0.31887165,-18.075,7.5937505,-24.993752
1763129337318,3.1645079,3.4085758,8.194819,0.17043127,-0.42042768,0.1791361,0.10571736,-0.22421955,-0.31741363,-18.075,7.5937505,-24.993752
1763129337319,3.1645079,3.4085758,8.194819,0.17043127,-0.42042768,0.1791361,0.10571736,-0.22421955,-0.31741363,-17.831251,7.65,-24.937502
1763129337336,3.1645079,3.4085758,8.194819,0.26251915,-0.3329213,0.1395826,0.10571736,-0.22421955,-0.31741363,-17.831251,7.65,-24.937502
1763129337337,3.4013975,3.2685957,9.060423,0.26251915,-0.3329213,0.1395826,0.10571736,-0.22421955,-0.31741363,-17.831251,7.65,-24.937502
1763129337338,3.4013975,3.2685957,9.060423,0.26251915,-0.3329213,0.1395826,0.10684375,-0.22844003,-0.31591055,-17.831251,7.65,-24.937502
1763129337340,3.4013975,3.2685957,9.060423,0.26251915,-0.3329213,0.1395826,0.10684375,-0.22844003,-0.31591055,-20.475,5.1000004,-25.331251
1763129337358,3.4013975,3.2685957,9.060423,0.5374083,-0.15974113,0.09392046,0.10684375,-0.22844003,-0.31591055,-20.475,5.1000004,-25.331251
1763129337359,3.4013975,3.2685957,9.060423,0.5374083,-0.15974113,0.09392046,0.111114904,-0.23180433,-0.31418592,-20.475,5.1000004,-25.331251
1763129337360,3.4013975,3.2685957,9.060423,0.5374083,-0.15974113,0.09392046,0.111114904,-0.23180433,-0.31418592,-18.7875,6.4687505,-24.0
1763129337362,3.4277184,3.1698918,9.172287,0.5374083,-0.15974113,0.09392046,0.111114904,-0.23180433,-0.31418592,-18.7875,6.4687505,-24.0
1763129337379,3.4277184,3.1698918,9.172287,0.5374083,-0.15974113,0.09392046,0.117002,-0.23619144,-0.31222224,-18.7875,6.4687505,-24.0
1763129337380,3.4277184,3.1698918,9.172287,0.72616553,-0.20784675,0.07773254,0.117002,-0.23619144,-0.31222224,-18.7875,6.4687505,-24.0
1763129337382,3.1202407,3.0837502,8.944371,0.72616553,-0.20784675,0.07773254,0.117002,-0.23619144,-0.31222224,-18.7875,6.4687505,-24.0
1763129337383,3.1202407,3.0837502,8.944371,0.72616553,-0.20784675,0.07773254,0.117002,-0.23619144,-0.31222224,-19.06875,5.7562504,-23.587502
1763129337398,3.1202407,3.0837502,8.944371,0.72616553,-0.20784675,0.07773254,0.117002,-0.23619144,-0.31222224,-20.25,3.8625002,-25.706251
1763129337399,3.1202407,3.0837502,8.944371,0.72616553,-0.20784675,0.07773254,0.12250479,-0.24235702,-0.31017524,-20.25,3.8625002,-25.706251
1763129337400,3.1202407,3.0837502,8.944371,0.7644973,-0.3810269,0.12156209,0.12250479,-0.24235702,-0.31017524,-20.25,3.8625002,-25.706251
1763129337401,3.1106694,3.0801609,8.488539,0.7644973,-0.3810269,0.12156209,0.12250479,-0.24235702,-0.31017524,-20.25,3.8625002,-25.706251
1763129337418,3.1106694,3.0801609,8.488539,0.7644973,-0.3810269,0.12156209,0.12250479,-0.24235702,-0.31017524,-20.268751,5.4750004,-25.687502
1763129337421,3.1106694,3.0801609,8.488539,0.7644973,-0.3810269,0.12156209,0.1269948,-0.24905005,-0.30785516,-20.268751,5.4750004,-25.687502
1763129337422,3.1106694,3.0801609,8.488539,0.6913462,-0.45784315,0.16019928,0.1269948,-0.24905005,-0.30785516,-20.268751,5.4750004,-25.687502
1763129337424,3.7692938,3.603591,8.254042,0.6913462,-0.45784315,0.16019928,0.1269948,-0.24905005,-0.30785516,-20.268751,5.4750004,-25.687502
1763129337438,3.7692938,3.603591,8.254042,0.6913462,-0.45784315,0.16019928,0.1269948,-0.24905005,-0.30785516,-20.1,5.1937504,-25.556252
1763129337442,3.7692938,3.603591,8.254042,0.5723803,-0.48395762,0.08659008,0.1269948,-0.24905005,-0.30785516,-20.1,5.1937504,-25.556252
1763129337443,4.3758745,3.964309,8.2253275,0.5723803,-0.48395762,0.08659008,0.1269948,-0.24905005,-0.30785516,-20.1,5.1937504,-25.556252
1763129337444,4.3758745,3.964309,8.2253275,0.5723803,-0.48395762,0.08659008,0.13053632,-0.2556396,-0.30640104,-20.1,5.1937504,-25.556252
1763129337458,4.3758745,3.964309,8.2253275,0.5723803,-0.48395762,0.08659008,0.13053632,-0.2556396,-0.30640104,-20.268751,5.4750004,-25.687502
1763129337462,4.3758745,3.964309,8.2253275,0.45051277,-0.54580766,-0.072540194,0.13053632,-0.2556396,-0.30640104,-20.268751,5.4750004,-25.687502
1763129337463,4.5302114,3.8781674,8.120044,0.45051277,-0.54580766,-0.072540194,0.13053632,-0.2556396,-0.30640104,-20.268751,5.4750004,-25.687502
1763129337465,4.5302114,3.8781674,8.120044,0.45051277,-0.54580766,-0.072540194,0.13326131,-0.26225156,-0.3064286,-20.268751,5.4750004,-25.687502
1763129337480,4.5302114,3.8781674,8.120044,0.45051277,-0.54580766,-0.072540194,0.13326131,-0.26225156,-0.3064286,-20.53125,4.7625003,-25.875002
1763129337483,4.3034916,3.8506498,8.059027,0.45051277,-0.54580766,-0.072540194,0.13326131,-0.26225156,-0.3064286,-20.53125,4.7625003,-25.875002
1763129337484,4.3034916,3.8506498,8.059027,0.32177302,-0.6539307,-0.26328272,0.13326131,-0.26225156,-0.3064286,-20.53125,4.7625003,-25.875002
1763129337485,4.3034916,3.8506498,8.059027,0.32177302,-0.6539307,-0.26328272,0.13482767,-0.26923338,-0.30896834,-20.53125,4.7625003,-25.875002
1763129337498,4.3034916,3.8506498,8.059027,0.32177302,-0.6539307,-0.26328272,0.13482767,-0.26923338,-0.30896834,-21.45,3.2812502,-24.843752
1763129337505,4.3034916,3.8506498,8.059027,0.32177302,-0.6539307,-0.26328272,0.13531032,-0.27585745,-0.31200233,-21.45,3.2812502,-24.843752
1763129337506,4.3034916,3.8506498,8.059027,0.20952661,-0.6647736,-0.27458373,0.13531032,-0.27585745,-0.31200233,-21.45,3.2812502,-24.843752
1763129337507,3.888935,3.8464625,7.70788,0.20952661,-0.6647736,-0.27458373,0.13531032,-0.27585745,-0.31200233,-21.45,3.2812502,-24.843752
1763129337517,3.888935,3.8464625,7.70788,0.20952661,-0.6647736,-0.27458373,0.13531032,-0.27585745,-0.31200233,-21.112501,3.3750002,-23.25
1763129337524,3.9158542,3.9948175,7.583453,0.20952661,-0.6647736,-0.27458373,0.13531032,-0.27585745,-0.31200233,-21.112501,3.3750002,-23.25
1763129337526,3.9158542,3.9948175,7.583453,0.049327333,-0.59605134,-0.14920372,0.13531032,-0.27585745,-0.31200233,-21.112501,3.3750002,-23.25
1763129337527,3.9158542,3.9948175,7.583453,0.049327333,-0.59605134,-0.14920372,0.13419205,-0.28140935,-0.3142411,-21.112501,3.3750002,-23.25
1763129337539,3.9158542,3.9948175,7.583453,0.049327333,-0.59605134,-0.14920372,0.13419205,-0.28140935,-0.3142411,-20.587502,4.275,-25.1625
1763129337546,3.9158542,3.9948175,7.583453,-0.031306818,-0.54840386,-0.102778,0.13419205,-0.28140935,-0.3142411,-20.587502,4.275,-25.1625
1763129337547,4.082155,4.0073795,7.8693953,-0.031306818,-0.54840386,-0.102778,0.13419205,-0.28140935,-0.3142411,-20.587502,4.275,-25.1625
1763129337558,4.082155,4.0073795,7.8693953,-0.031306818,-0.54840386,-0.102778,0.13419205,-0.28140935,-0.3142411,-22.06875,3.1312501,-24.225
1763129337560,4.082155,4.0073795,7.8693953,-0.031306818,-0.54840386,-0.102778,0.13244869,-0.28627357,-0.31596452,-22.06875,3.1312501,-24.225
1763129337567,4.082155,4.0073795,7.8693953,0.018784093,-0.5183188,-0.16065744,0.13244869,-0.28627357,-0.31596452,-22.06875,3.1312501,-24.225
1763129337568,4.276572,3.9690945,7.9507513,0.018784093,-0.5183188,-0.16065744,0.13244869,-0.28627357,-0.31596452,-22.06875,3.1312501,-24.225
1763129337580,4.276572,3.9690945,7.9507513,0.018784093,-0.5183188,-0.16065744,0.13135456,-0.29093468,-0.3182143,-22.06875,3.1312501,-24.225
1763129337581,4.276572,3.9690945,7.9507513,0.018784093,-0.5183188,-0.16065744,0.13135456,-0.29093468,-0.3182143,-21.73125,3.2250001,-23.1
1763129337588,4.276572,3.9690945,7.9507513,0.11056653,-0.458454,-0.26572618,0.13135456,-0.29093468,-0.3182143,-21.73125,3.2250001,-23.1
1763129337589,4.365705,4.0067816,7.8149586,0.11056653,-0.458454,-0.26572618,0.13135456,-0.29093468,-0.3182143,-21.73125,3.2250001,-23.1
1763129337597,4.365705,4.0067816,7.8149586,0.11056653,-0.458454,-0.26572618,0.13159308,-0.2951963,-0.32107756,-21.73125,3.2250001,-23.1
1763129337598,4.365705,4.0067816,7.8149586,0.11056653,-0.458454,-0.26572618,0.13159308,-0.2951963,-0.32107756,-22.725,3.9562502,-24.0375
1763129337608,4.365705,4.0067816,7.8149586,0.20708317,-0.3008509,-0.3498728,0.13159308,-0.2951963,-0.32107756,-22.725,3.9562502,-24.0375
1763129337608,4.210171,4.1587257,7.6127653,0.20708317,-0.3008509,-0.3498728,0.13159308,-0.2951963,-0.32107756,-22.725,3.9562502,-24.0375
1763129337618,4.210171,4.1587257,7.6127653,0.20708317,-0.3008509,-0.3498728,0.1335233,-0.29820684,-0.32416093,-22.725,3.9562502,-24.0375
1763129337619,4.210171,4.1587257,7.6127653,0.20708317,-0.3008509,-0.3498728,0.1335233,-0.29820684,-0.32416093,-27.4125,1.7812501,-19.3875
1763129337630,4.210171,4.1587257,7.6127653,0.2594648,-0.24129158,-0.33933538,0.1335233,-0.29820684,-0.32416093,-27.4125,1.7812501,-19.3875
1763129337630,3.952943,4.2478585,7.4865437,0.2594648,-0.24129158,-0.33933538,0.1335233,-0.29820684,-0.32416093,-27.4125,1.7812501,-19.3875
1763129337638,3.952943,4.2478585,7.4865437,0.2594648,-0.24129158,-0.33933538,0.1361543,-0.3008383,-0.32689002,-27.4125,1.7812501,-19.3875
1763129337638,3.952943,4.2478585,7.4865437,0.2594648,-0.24129158,-0.33933538,0.1361543,-0.3008383,-0.32689002,-30.656252,-2.15625,-15.375001
1763129337651,3.952943,4.2478585,7.4865437,0.22464553,-0.3081813,-0.24297146,0.1361543,-0.3008383,-0.32689002,-30.656252,-2.15625,-15.375001
1763129337651,3.8727834,4.2927237,7.2897344,0.22464553,-0.3081813,-0.24297146,0.1361543,-0.3008383,-0.32689002,-30.656252,-2.15625,-15.375001
1763129337657,3.8727834,4.2927237,7.2897344,0.22464553,-0.3081813,-0.24297146,0.13795279,-0.30406603,-0.32898054,-30.656252,-2.15625,-15.375001
1763129337658,3.8727834,4.2927237,7.2897344,0.22464553,-0.3081813,-0.24297146,0.13795279,-0.30406603,-0.32898054,-26.868752,1.575,-20.081251
1763129337672,3.9547377,4.3758745,7.3489566,0.22464553,-0.3081813,-0.24297146,0.13795279,-0.30406603,-0.32898054,-26.868752,1.575,-20.081251
1763129337672,3.9547377,4.3758745,7.3489566,0.13041963,-0.40469792,-0.14844014,0.13795279,-0.30406603,-0.32898054,-26.868752,1.575,-20.081251
1763129337677,3.9547377,4.3758745,7.3489566,0.13041963,-0.40469792,-0.14844014,0.13826649,-0.30798873,-0.33062616,-26.868752,1.575,-20.081251
1763129337677,3.9547377,4.3758745,7.3489566,0.13041963,-0.40469792,-0.14844014,0.13826649,-0.30798873,-0.33062616,-30.900002,-3.6750002,-16.85625
1763129337692,3.9547377,4.3758745,7.3489566,0.102014415,-0.41798422,-0.10522146,0.13826649,-0.30798873,-0.33062616,-30.900002,-3.6750002,-16.85625
1763129337693,4.217948,4.402794,7.5403824,0.102014415,-0.41798422,-0.10522146,0.13826649,-0.30798873,-0.33062616,-30.900002,-3.6750002,-16.85625
1763129337698,4.217948,4.402794,7.5403824,0.102014415,-0.41798422,-0.10522146,0.13812912,-0.31198642,-0.3319838,-30.900002,-3.6750002,-16.85625
1763129337698,4.217948,4.402794,7.5403824,0.102014415,-0.41798422,-0.10522146,0.13812912,-0.31198642,-0.3319838,-28.556252,0.88125,-19.03125
1763129337714,4.217948,4.402794,7.5403824,0.1301142,-0.33124143,-0.12202024,0.13812912,-0.31198642,-0.3319838,-28.556252,0.88125,-19.03125
1763129337714,4.295715,4.4398823,7.515258,0.1301142,-0.33124143,-0.12202024,0.13812912,-0.31198642,-0.3319838,-28.556252,0.88125,-19.03125
1763129337718,4.295715,4.4398823,7.515258,0.1301142,-0.33124143,-0.12202024,0.13856392,-0.31526193,-0.33326727,-28.556252,0.88125,-19.03125
1763129337718,4.295715,4.4398823,7.515258,0.1301142,-0.33124143,-0.12202024,0.13856392,-0.31526193,-0.33326727,-29.475,0.0375,-16.2
1763129337734,4.295715,4.4398823,7.515258,0.15378521,-0.23930627,-0.13897173,0.13856392,-0.31526193,-0.33326727,-29.475,0.0375,-16.2
1763129337735,4.3375893,4.4841495,7.483553,0.15378521,-0.23930627,-0.13897173,0.13856392,-0.31526193,-0.33326727,-29.475,0.0375,-16.2
1763129337737,4.3375893,4.4841495,7.483553,0.15378521,-0.23930627,-0.13897173,0.13958867,-0.317753,-0.33447692,-29.475,0.0375,-16.2
1763129337748,4.3375893,4.4841495,7.483553,0.15378521,-0.23930627,-0.13897173,0.13958867,-0.317753,-0.33447692,-30.13125,-1.10625,-19.575
1763129337755,4.3818564,4.5320063,7.389036,0.15378521,-0.23930627,-0.13897173,0.13958867,-0.317753,-0.33447692,-30.13125,-1.10625,-19.575
1763129337757,4.3818564,4.5320063,7.389036,0.16050471,-0.1951713,-0.13973531,0.13958867,-0.317753,-0.33447692,-30.13125,-1.10625,-19.575
1763129337758,4.3818564,4.5320063,7.389036,0.16050471,-0.1951713,-0.13973531,0.14083047,-0.31986043,-0.3355957,-30.13125,-1.10625,-19.575
1763129337758,4.3818564,4.5320063,7.389036,0.16050471,-0.1951713,-0.13973531,0.14083047,-0.31986043,-0.3355957,-25.837502,0.84375006,-20.493752
1763129337778,4.3818564,4.5320063,7.389036,0.16050471,-0.1951713,-0.13973531,0.14170521,-0.3222233,-0.33665237,-25.837502,0.84375006,-20.493752
1763129337778,4.3818564,4.5320063,7.389036,0.13820815,-0.22785257,-0.12232567,0.14170521,-0.3222233,-0.33665237,-25.837502,0.84375006,-20.493752
1763129337779,4.3818564,4.5320063,7.389036,0.13820815,-0.22785257,-0.12232567,0.14170521,-0.3222233,-0.33665237,-29.868752,1.575,-14.906251
1763129337779,4.229314,4.5541396,7.368099,0.13820815,-0.22785257,-0.12232567,0.14170521,-0.3222233,-0.33665237,-29.868752,1.575,-14.906251
1763129337798,4.229314,4.5541396,7.368099,0.10690133,-0.29458955,-0.057574004,0.14170521,-0.3222233,-0.33665237,-29.868752,1.575,-14.906251
1763129337799,4.229314,4.5541396,7.368099,0.10690133,-0.29458955,-0.057574004,0.14184026,-0.32514867,-0.33737358,-29.868752,1.575,-14.906251
1763129337800,4.229314,4.5541396,7.368099,0.10690133,-0.29458955,-0.057574004,0.14184026,-0.32514867,-0.33737358,-31.462502,-4.275,-16.10625
1763129337801,4.229314,4.5738807,7.29452,0.10690133,-0.29458955,-0.057574004,0.14184026,-0.32514867,-0.33737358,-31.462502,-4.275,-16.10625
1763129337817,4.229314,4.5738807,7.29452,0.10690133,-0.29458955,-0.057574004,0.14184026,-0.32514867,-0.33737358,-27.581251,2.71875,-18.46875
1763129337819,4.229314,4.5738807,7.29452,0.056352276,-0.30680683,0.0067195124,0.14184026,-0.32514867,-0.33737358,-27.581251,2.71875,-18.46875
1763129337820,4.229314,4.5738807,7.29452,0.056352276,-0.30680683,0.0067195124,0.14125863,-0.3280966,-0.33769435,-27.581251,2.71875,-18.46875
1763129337821,4.3537407,4.6342993,7.090532,0.056352276,-0.30680683,0.0067195124,0.14125863,-0.3280966,-0.33769435,-27.581251,2.71875,-18.46875
1763129337837,4.3537407,4.6342993,7.090532,0.056352276,-0.30680683,0.0067195124,0.14125863,-0.3280966,-0.33769435,-29.531252,-0.95625,-18.393751
1763129337839,4.3537407,4.6342993,7.090532,0.056352276,-0.30680683,0.0067195124,0.1399031,-0.33033907,-0.3372763,-29.531252,-0.95625,-18.393751
1763129337840,4.3537407,4.6342993,7.090532,-0.023518294,-0.24220788,0.09834923,0.1399031,-0.33033907,-0.3372763,-29.531252,-0.95625,-18.393751
1763129337840,4.5930233,4.6815577,7.0672016,-0.023518294,-0.24220788,0.09834923,0.1399031,-0.33033907,-0.3372763,-29.531252,-0.95625,-18.393751
1763129337858,4.5930233,4.6815577,7.0672016,-0.023518294,-0.24220788,0.09834923,0.1399031,-0.33033907,-0.3372763,-27.150002,0.375,-22.125
1763129337860,4.5930233,4.6815577,7.0672016,-0.020158539,0.04856375,0.13622284,0.1399031,-0.33033907,-0.3372763,-27.150002,0.375,-22.125
1763129337862,4.5930233,4.6815577,7.0672016,-0.020158539,0.04856375,0.13622284,0.13948981,-0.33003208,-0.3359928,-27.150002,0.375,-22.125
1763129337863,4.746164,4.554738,7.118049,-0.020158539,0.04856375,0.13622284,0.13948981,-0.33003208,-0.3359928,-27.150002,0.375,-22.125
1763129337878,4.746164,4.554738,7.118049,-0.020158539,0.04856375,0.13622284,0.13948981,-0.33003208,-0.3359928,-24.093752,2.1937501,-23.8125
1763129337882,4.746164,4.554738,7.118049,-0.025503604,0.09560034,0.1122464,0.13948981,-0.33003208,-0.3359928,-24.093752,2.1937501,-23.8125
1763129337883,4.746164,4.554738,7.118049,-0.025503604,0.09560034,0.1122464,0.13923484,-0.32925707,-0.33485818,-24.093752,2.1937501,-23.8125
1763129337884,4.4458647,4.3088756,7.0863442,-0.025503604,0.09560034,0.1122464,0.13923484,-0.32925707,-0.33485818,-24.093752,2.1937501,-23.8125
1763129337899,4.4458647,4.3088756,7.0863442,-0.025503604,0.09560034,0.1122464,0.13923484,-0.32925707,-0.33485818,-24.937502,1.6875001,-21.825
1763129337906,4.4458647,4.3088756,7.0863442,-0.025503604,0.09560034,0.1122464,0.138433,-0.32829285,-0.33387148,-24.937502,1.6875001,-21.825
1763129337907,4.4458647,4.3088756,7.0863442,-0.074830934,0.094378605,0.12538,0.138433,-0.32829285,-0.33387148,-24.937502,1.6875001,-21.825
1763129337909,4.388437,4.3674994,6.984051,-0.074830934,0.094378605,0.12538,0.138433,-0.32829285,-0.33387148,-24.937502,1.6875001,-21.825
1763129337917,4.388437,4.3674994,6.984051,-0.074830934,0.094378605,0.12538,0.138433,-0.32829285,-0.33387148,-22.931252,3.5812502,-23.7
1763129337923,4.388437,4.3674994,6.984051,-0.074830934,0.094378605,0.12538,0.13704517,-0.3266294,-0.33269408,-22.931252,3.5812502,-23.7
1763129337924,4.388437,4.3674994,6.984051,-0.15057817,0.14844014,0.16264275,0.13704517,-0.3266294,-0.33269408,-22.931252,3.5812502,-23.7
1763129337924,4.456632,4.3944187,7.0666037,-0.15057817,0.14844014,0.16264275,0.13704517,-0.3266294,-0.33269408,-22.931252,3.5812502,-23.7
1763129337937,4.456632,4.3944187,7.0666037,-0.15057817,0.14844014,0.16264275,0.13704517,-0.3266294,-0.33269408,-23.4375,2.025,-23.2875
1763129337947,4.456632,4.3944187,7.0666037,-0.18280129,0.13087778,0.17012584,0.13704517,-0.3266294,-0.33269408,-23.4375,2.025,-23.2875
1763129337952,4.482953,4.406383,7.2341013,-0.18280129,0.13087778,0.17012584,0.13704517,-0.3266294,-0.33269408,-23.4375,2.025,-23.2875
1763129337958,4.482953,4.406383,7.2341013,-0.18280129,0.13087778,0.17012584,0.13704517,-0.3266294,-0.33269408,-23.4375,1.8750001,-21.88125
1763129337965,4.482953,4.406383,7.2341013,-0.1913534,0.08888082,0.15103632,0.13704517,-0.3266294,-0.33269408,-23.4375,1.8750001,-21.88125
1763129337966,4.659424,4.3262234,7.3381886,-0.1913534,0.08888082,0.15103632,0.13704517,-0.3266294,-0.33269408,-23.4375,1.8750001,-21.88125
1763129337980,4.659424,4.3262234,7.3381886,-0.1913534,0.08888082,0.15103632,0.13551629,-0.32500574,-0.33153465,-23.4375,1.8750001,-21.88125
1763129337980,4.659424,4.3262234,7.3381886,-0.1913534,0.08888082,0.15103632,0.13377641,-0.3236394,-0.33077878,-23.4375,1.8750001,-21.88125
1763129337981,4.659424,4.3262234,7.3381886,-0.1913534,0.08888082,0.15103632,0.13377641,-0.3236394,-0.33077878,-25.1625,1.63125,-22.931252
1763129337989,4.659424,4.3262234,7.3381886,-0.20540328,-0.08124501,0.08704823,0.13377641,-0.3236394,-0.33077878,-25.1625,1.63125,-22.931252
1763129337990,4.6115675,4.214957,7.390831,-0.20540328,-0.08124501,0.08704823,0.13377641,-0.3236394,-0.33077878,-25.1625,1.63125,-22.931252
1763129337997,4.6115675,4.214957,7.390831,-0.20540328,-0.08124501,0.08704823,0.13133202,-0.32378766,-0.33079502,-25.1625,1.63125,-22.931252
1763129337998,4.6115675,4.214957,7.390831,-0.20540328,-0.08124501,0.08704823,0.13133202,-0.32378766,-0.33079502,-24.243752,2.9625,-22.556252
1763129338007,4.6115675,4.214957,7.390831,-0.26328272,-0.2283107,0.047952887,0.13133202,-0.32378766,-0.33079502,-24.243752,2.9625,-22.556252
1763129338007,4.341777,4.1168513,7.2023964,-0.26328272,-0.2283107,0.047952887,0.13133202,-0.32378766,-0.33079502,-24.243752,2.9625,-22.556252
1763129338034,4.341777,4.1168513,7.2023964,-0.26328272,-0.2283107,0.047952887,0.12782104,-0.32488924,-0.33186713,-24.243752,2.9625,-22.556252
1763129338035,4.341777,4.1168513,7.2023964,-0.26328272,-0.2283107,0.047952887,0.12782104,-0.32488924,-0.33186713,-23.081251,3.7125,-22.875
1763129338036,4.341777,4.1168513,7.2023964,-0.30695954,0.062460925,0.09224058,0.12782104,-0.32488924,-0.33186713,-23.081251,3.7125,-22.875
1763129338037,4.5415773,4.3441696,7.245467,-0.30695954,0.062460925,0.09224058,0.12782104,-0.32488924,-0.33186713,-23.081251,3.7125,-22.875
1763129338038,4.5415773,4.3441696,7.245467,-0.30695954,0.062460925,0.09224058,0.12495485,-0.3231002,-0.33243686,-23.081251,3.7125,-22.875
1763129338039,4.5415773,4.3441696,7.245467,-0.30695954,0.062460925,0.09224058,0.12495485,-0.3231002,-0.33243686,-24.88125,2.8312502,-21.6375
