timestamp,accX,accY,accZ,gyroX,gyroY,gyroZ,rotX,rotY,rotZ,magX,magY,magZ
1763129342098,5.4777694,4.503292,6.6394844,-0.2376264,0.47128218,0.047494736,0.07003316,-0.39029694,-0.405072,-35.475002,-3.5625002,-11.56875
1763129342101,5.4777694,4.503292,6.6394844,-0.21456626,0.570395,0.11866048,0.07003316,-0.39029694,-0.405072,-35.475002,-3.5625002,-11.56875
1763129342101,5.4777694,4.503292,6.6394844,-0.21456626,0.570395,0.11866048,0.070291504,-0.38453287,-0.40435067,-35.475002,-3.5625002,-11.56875
1763129342102,5.316852,4.429713,7.1222367,-0.21456626,0.570395,0.11866048,0.070291504,-0.38453287,-0.40435067,-35.475002,-3.5625002,-11.56875
1763129342119,5.316852,4.429713,7.1222367,-0.21456626,0.570395,0.11866048,0.070291504,-0.38453287,-0.40435067,-29.00625,0.45000002,-18.300001
1763129342121,5.316852,4.429713,7.1222367,-0.1273653,0.5232057,0.19654575,0.070291504,-0.38453287,-0.40435067,-29.00625,0.45000002,-18.300001
1763129342122,5.316852,4.429713,7.1222367,-0.1273653,0.5232057,0.19654575,0.0706834,-0.3795213,-0.40284747,-29.00625,0.45000002,-18.300001
1763129342122,5.2402816,4.2705903,7.304091,-0.1273653,0.5232057,0.19654575,0.0706834,-0.3795213,-0.40284747,-29.00625,0.45000002,-18.300001
1763129342138,5.2402816,4.2705903,7.304091,-0.1273653,0.5232057,0.19654575,0.0706834,-0.3795213,-0.40284747,-29.343752,2.325,-15.562501
1763129342145,5.2402816,4.2705903,7.304091,-0.054366965,0.38912088,0.22861615,0.0706834,-0.3795213,-0.40284747,-29.343752,2.325,-15.562501
1763129342146,5.337191,4.074379,7.0989065,-0.054366965,0.38912088,0.22861615,0.0706834,-0.3795213,-0.40284747,-29.343752,2.325,-15.562501
1763129342147,5.337191,4.074379,7.0989065,-0.054366965,0.38912088,0.22861615,0.07096276,-0.37596896,-0.40092033,-29.343752,2.325,-15.562501
1763129342157,5.337191,4.074379,7.0989065,-0.054366965,0.38912088,0.22861615,0.07096276,-0.37596896,-0.40092033,-29.00625,1.10625,-17.25
1763129342163,5.5160546,3.9894335,6.8853474,-0.054366965,0.38912088,0.22861615,0.07096276,-0.37596896,-0.40092033,-29.00625,1.10625,-17.25
1763129342164,5.5160546,3.9894335,6.8853474,-0.04703659,0.26374087,0.18234314,0.07096276,-0.37596896,-0.40092033,-29.00625,1.10625,-17.25
1763129342165,5.5160546,3.9894335,6.8853474,-0.04703659,0.26374087,0.18234314,0.07093418,-0.37354785,-0.39939308,-29.00625,1.10625,-17.25
1763129342178,5.5160546,3.9894335,6.8853474,-0.04703659,0.26374087,0.18234314,0.07093418,-0.37354785,-0.39939308,-29.94375,0.5625,-17.081251
1763129342187,5.5160546,3.9894335,6.8853474,-0.07651082,0.20616686,0.11682789,0.07093418,-0.37354785,-0.39939308,-29.94375,0.5625,-17.081251
1763129342188,5.5160546,3.9894335,6.8853474,-0.07651082,0.20616686,0.11682789,0.07066357,-0.3715187,-0.39850077,-29.94375,0.5625,-17.081251
1763129342191,5.541777,3.9798622,6.727421,-0.07651082,0.20616686,0.11682789,0.07066357,-0.3715187,-0.39850077,-29.94375,0.5625,-17.081251
1763129342198,5.541777,3.9798622,6.727421,-0.07651082,0.20616686,0.11682789,0.07066357,-0.3715187,-0.39850077,-27.956251,1.03125,-17.681252
1763129342206,5.541777,3.9798622,6.727421,-0.102472566,0.18066326,0.08872811,0.07066357,-0.3715187,-0.39850077,-27.956251,1.03125,-17.681252
1763129342207,5.3886366,4.002594,6.8464637,-0.102472566,0.18066326,0.08872811,0.07066357,-0.3715187,-0.39850077,-27.956251,1.03125,-17.681252
1763129342219,5.3886366,4.002594,6.8464637,-0.102472566,0.18066326,0.08872811,0.07019481,-0.36961573,-0.3979144,-27.956251,1.03125,-17.681252
1763129342220,5.3886366,4.002594,6.8464637,-0.102472566,0.18066326,0.08872811,0.07019481,-0.36961573,-0.3979144,-27.618752,2.86875,-17.625
1763129342227,5.3886366,4.002594,6.8464637,-0.09025527,0.17195843,0.12202024,0.07019481,-0.36961573,-0.3979144,-27.618752,2.86875,-17.625
1763129342228,5.255835,3.935595,6.8578296,-0.09025527,0.17195843,0.12202024,0.07019481,-0.36961573,-0.3979144,-27.618752,2.86875,-17.625
1763129342237,5.255835,3.935595,6.8578296,-0.09025527,0.17195843,0.12202024,0.0696779,-0.36783114,-0.39703777,-27.618752,2.86875,-17.625
1763129342237,5.255835,3.935595,6.8578296,-0.09025527,0.17195843,0.12202024,0.0696779,-0.36783114,-0.39703777,-28.95,1.5937501,-17.38125
1763129342247,5.255835,3.935595,6.8578296,-0.10415245,0.15531237,0.1875355,0.0696779,-0.36783114,-0.39703777,-28.95,1.5937501,-17.38125
1763129342248,5.358128,3.8488553,6.920043,-0.10415245,0.15531237,0.1875355,0.0696779,-0.36783114,-0.39703777,-28.95,1.5937501,-17.38125
1763129342257,5.358128,3.8488553,6.920043,-0.10415245,0.15531237,0.1875355,0.06871514,-0.3661615,-0.39567596,-28.95,1.5937501,-17.38125
1763129342258,5.358128,3.8488553,6.920043,-0.10415245,0.15531237,0.1875355,0.06871514,-0.3661615,-0.39567596,-29.081251,-0.01875,-15.918751
1763129342270,5.358128,3.8488553,6.920043,-0.123547405,0.16875139,0.23075417,0.06871514,-0.3661615,-0.39567596,-29.081251,-0.01875,-15.918751
1763129342272,5.667999,3.7998023,6.990033,-0.123547405,0.16875139,0.23075417,0.06871514,-0.3661615,-0.39567596,-29.081251,-0.01875,-15.918751
1763129342278,5.667999,3.7998023,6.990033,-0.123547405,0.16875139,0.23075417,0.06744809,-0.3643308,-0.39398563,-29.081251,-0.01875,-15.918751
1763129342279,5.667999,3.7998023,6.990033,-0.123547405,0.16875139,0.23075417,0.06744809,-0.3643308,-0.39398563,-26.98125,2.8500001,-17.8875
1763129342290,5.667999,3.7998023,6.990033,-0.14278965,0.22128576,0.22250749,0.06744809,-0.3643308,-0.39398563,-26.98125,2.8500001,-17.8875
1763129342291,5.6356955,3.7005002,6.96431,-0.14278965,0.22128576,0.22250749,0.06744809,-0.3643308,-0.39398563,-26.98125,2.8500001,-17.8875
1763129342298,5.6356955,3.7005002,6.96431,-0.14278965,0.22128576,0.22250749,0.06623696,-0.36199167,-0.3923399,-26.98125,2.8500001,-17.8875
1763129342299,5.6356955,3.7005002,6.96431,-0.14278965,0.22128576,0.22250749,0.06623696,-0.36199167,-0.3923399,-26.79375,3.2250001,-17.625
1763129342311,5.6356955,3.7005002,6.96431,-0.16890411,0.25228715,0.2319759,0.06623696,-0.36199167,-0.3923399,-26.79375,3.2250001,-17.625
1763129342312,5.517849,3.5958142,6.851249,-0.16890411,0.25228715,0.2319759,0.06623696,-0.36199167,-0.3923399,-26.79375,3.2250001,-17.625
1763129342317,5.517849,3.5958142,6.851249,-0.16890411,0.25228715,0.2319759,0.06487964,-0.35927707,-0.39067537,-26.79375,3.2250001,-17.625
1763129342317,5.517849,3.5958142,6.851249,-0.16890411,0.25228715,0.2319759,0.06487964,-0.35927707,-0.39067537,-30.337502,0.4875,-15.375001
1763129342332,5.517849,3.5958142,6.851249,-0.2328922,0.23518294,0.23151775,0.06487964,-0.35927707,-0.39067537,-30.337502,0.4875,-15.375001
1763129342332,5.30429,3.7818563,6.413961,-0.2328922,0.23518294,0.23151775,0.06487964,-0.35927707,-0.39067537,-30.337502,0.4875,-15.375001
1763129342337,5.30429,3.7818563,6.413961,-0.2328922,0.23518294,0.23151775,0.06289545,-0.3564502,-0.38925207,-30.337502,0.4875,-15.375001
1763129342337,5.30429,3.7818563,6.413961,-0.2328922,0.23518294,0.23151775,0.06289545,-0.3564502,-0.38925207,-29.212502,1.6875001,-17.775002
1763129342353,5.30429,3.7818563,6.413961,-0.36560258,0.37980518,0.29382595,0.06289545,-0.3564502,-0.38925207,-29.212502,1.6875001,-17.775002
1763129342354,4.8765726,3.6544385,6.593423,-0.36560258,0.37980518,0.29382595,0.06289545,-0.3564502,-0.38925207,-29.212502,1.6875001,-17.775002
1763129342358,4.8765726,3.6544385,6.593423,-0.36560258,0.37980518,0.29382595,0.06023522,-0.3518847,-0.38754338,-29.212502,1.6875001,-17.775002
1763129342360,4.8765726,3.6544385,6.593423,-0.36560258,0.37980518,0.29382595,0.06023522,-0.3518847,-0.38754338,-27.562502,4.0125003,-16.706251
1763129342374,4.8765726,3.6544385,6.593423,-0.40958482,0.61315554,0.41279188,0.06023522,-0.3518847,-0.38754338,-27.562502,4.0125003,-16.706251
1763129342375,4.741378,3.6550367,6.6424756,-0.40958482,0.61315554,0.41279188,0.06023522,-0.3518847,-0.38754338,-27.562502,4.0125003,-16.706251
1763129342379,4.741378,3.6550367,6.6424756,-0.40958482,0.61315554,0.41279188,0.05768617,-0.34503987,-0.38487327,-27.562502,4.0125003,-16.706251
1763129342380,4.741378,3.6550367,6.6424756,-0.40958482,0.61315554,0.41279188,0.05768617,-0.34503987,-0.38487327,-25.29375,3.5625002,-18.337502
1763129342396,4.741378,3.6550367,6.6424756,-0.48044515,0.8054252,0.5193878,0.05768617,-0.34503987,-0.38487327,-25.29375,3.5625002,-18.337502
1763129342397,4.8658047,3.4007993,7.1419773,-0.48044515,0.8054252,0.5193878,0.05768617,-0.34503987,-0.38487327,-25.29375,3.5625002,-18.337502
1763129342399,4.8658047,3.4007993,7.1419773,-0.48044515,0.8054252,0.5193878,0.054930225,-0.3362225,-0.38132656,-25.29375,3.5625002,-18.337502
1763129342401,4.8658047,3.4007993,7.1419773,-0.48044515,0.8054252,0.5193878,0.054930225,-0.3362225,-0.38132656,-24.69375,3.8625002,-19.59375
1763129342416,4.8658047,3.4007993,7.1419773,-0.4338667,0.72463834,0.5858193,0.054930225,-0.3362225,-0.38132656,-24.69375,3.8625002,-19.59375
1763129342417,5.1415777,3.182454,7.687541,-0.4338667,0.72463834,0.5858193,0.054930225,-0.3362225,-0.38132656,-24.69375,3.8625002,-19.59375
1763129342418,5.1415777,3.182454,7.687541,-0.4338667,0.72463834,0.5858193,0.05194055,-0.32828963,-0.37708026,-24.69375,3.8625002,-19.59375
1763129342419,5.1415777,3.182454,7.687541,-0.4338667,0.72463834,0.5858193,0.05194055,-0.32828963,-0.37708026,-27.35625,3.5812502,-17.8875
1763129342438,5.1415777,3.182454,7.687541,-0.4338667,0.72463834,0.5858193,0.049146235,-0.32179648,-0.37315598,-27.35625,3.5812502,-17.8875
1763129342439,5.1415777,3.182454,7.687541,-0.36270097,0.5887209,0.5317578,0.049146235,-0.32179648,-0.37315598,-27.35625,3.5812502,-17.8875
1763129342440,5.1415777,3.182454,7.687541,-0.36270097,0.5887209,0.5317578,0.049146235,-0.32179648,-0.37315598,-24.862501,4.8,-17.775002
1763129342442,5.00399,3.2386854,7.5882387,-0.36270097,0.5887209,0.5317578,0.049146235,-0.32179648,-0.37315598,-24.862501,4.8,-17.775002
1763129342459,5.00399,3.2386854,7.5882387,-0.36270097,0.5887209,0.5317578,0.04660134,-0.31444016,-0.36892796,-24.862501,4.8,-17.775002
1763129342460,5.00399,3.2386854,7.5882387,-0.3733911,0.67958707,0.5542071,0.04660134,-0.31444016,-0.36892796,-24.862501,4.8,-17.775002
1763129342461,5.00399,3.2386854,7.5882387,-0.3733911,0.67958707,0.5542071,0.04660134,-0.31444016,-0.36892796,-27.112501,3.6375,-17.0625
1763129342462,4.4727836,3.07717,7.717451,-0.3733911,0.67958707,0.5542071,0.04660134,-0.31444016,-0.36892796,-27.112501,3.6375,-17.0625
1763129342477,4.4727836,3.07717,7.717451,-0.3733911,0.67958707,0.5542071,0.04660134,-0.31444016,-0.36892796,-26.775002,3.3750002,-19.63125
1763129342478,4.4727836,3.07717,7.717451,-0.3733911,0.67958707,0.5542071,0.04463929,-0.30502096,-0.36337397,-26.775002,3.3750002,-19.63125
1763129342479,4.4727836,3.07717,7.717451,-0.35689774,0.90560704,0.6881392,0.04463929,-0.30502096,-0.36337397,-26.775002,3.3750002,-19.63125
1763129342481,5.0452666,2.9132617,8.189436,-0.35689774,0.90560704,0.6881392,0.04463929,-0.30502096,-0.36337397,-26.775002,3.3750002,-19.63125
1763129342497,5.0452666,2.9132617,8.189436,-0.35689774,0.90560704,0.6881392,0.04463929,-0.30502096,-0.36337397,-24.73125,5.625,-18.712502
1763129342501,5.0452666,2.9132617,8.189436,-0.2629773,1.1224641,0.650571,0.04463929,-0.30502096,-0.36337397,-24.73125,5.625,-18.712502
1763129342502,5.0452666,2.9132617,8.189436,-0.2629773,1.1224641,0.650571,0.044410206,-0.29397032,-0.35760304,-24.73125,5.625,-18.712502
1763129342504,5.52084,2.7613173,8.649456,-0.2629773,1.1224641,0.650571,0.044410206,-0.29397032,-0.35760304,-24.73125,5.625,-18.712502
1763129342517,5.52084,2.7613173,8.649456,-0.2629773,1.1224641,0.650571,0.044410206,-0.29397032,-0.35760304,-23.38125,6.8812504,-20.306252
1763129342521,5.52084,2.7613173,8.649456,-0.2629773,1.1224641,0.650571,0.047053803,-0.28251332,-0.35288036,-23.38125,6.8812504,-20.306252
1763129342522,5.52084,2.7613173,8.649456,-0.0594066,1.2402083,0.44730574,0.047053803,-0.28251332,-0.35288036,-23.38125,6.8812504,-20.306252
1763129342523,5.7397833,2.5088747,8.685946,-0.0594066,1.2402083,0.44730574,0.047053803,-0.28251332,-0.35288036,-23.38125,6.8812504,-20.306252
1763129342539,5.7397833,2.5088747,8.685946,-0.0594066,1.2402083,0.44730574,0.047053803,-0.28251332,-0.35288036,-25.331251,5.4750004,-20.362501
1763129342542,5.7397833,2.5088747,8.685946,-0.0594066,1.2402083,0.44730574,0.049376752,-0.27453166,-0.34977132,-25.331251,5.4750004,-20.362501
1763129342543,5.7397833,2.5088747,8.685946,-0.0027488915,0.8836159,0.262061,0.049376752,-0.27453166,-0.34977132,-25.331251,5.4750004,-20.362501
1763129342545,5.328218,2.289333,8.497512,-0.0027488915,0.8836159,0.262061,0.049376752,-0.27453166,-0.34977132,-25.331251,5.4750004,-20.362501
1763129342557,5.328218,2.289333,8.497512,-0.0027488915,0.8836159,0.262061,0.049376752,-0.27453166,-0.34977132,-24.825,4.6312504,-19.3875
1763129342562,5.328218,2.289333,8.497512,-0.0027488915,0.8836159,0.262061,0.051370602,-0.26551118,-0.34752086,-24.825,4.6312504,-19.3875
1763129342563,5.328218,2.289333,8.497512,-0.083383046,0.95355994,0.19196425,0.051370602,-0.26551118,-0.34752086,-24.825,4.6312504,-19.3875
1763129342564,5.139783,2.243271,8.426325,-0.083383046,0.95355994,0.19196425,0.051370602,-0.26551118,-0.34752086,-24.825,4.6312504,-19.3875
1763129342578,5.139783,2.243271,8.426325,-0.083383046,0.95355994,0.19196425,0.051370602,-0.26551118,-0.34752086,-23.962502,7.2375,-20.268751
1763129342584,5.139783,2.243271,8.426325,-0.160352,1.5726714,-0.009468404,0.051370602,-0.26551118,-0.34752086,-23.962502,7.2375,-20.268751
1763129342585,6.3361945,2.30369,8.722437,-0.160352,1.5726714,-0.009468404,0.051370602,-0.26551118,-0.34752086,-23.962502,7.2375,-20.268751
1763129342587,6.3361945,2.30369,8.722437,-0.160352,1.5726714,-0.009468404,0.055451285,-0.25025868,-0.3469209,-23.962502,7.2375,-20.268751
1763129342597,6.3361945,2.30369,8.722437,-0.160352,1.5726714,-0.009468404,0.055451285,-0.25025868,-0.3469209,-24.656252,3.6937501,-20.4375
1763129342604,6.3361945,2.30369,8.722437,-0.160352,1.5726714,-0.009468404,0.061815552,-0.23886363,-0.3486397,-24.656252,3.6937501,-20.4375
1763129342605,6.3361945,2.30369,8.722437,0.110108376,1.2692243,-0.35689774,0.061815552,-0.23886363,-0.3486397,-24.656252,3.6937501,-20.4375
1763129342606,5.552545,2.6225336,9.834501,0.110108376,1.2692243,-0.35689774,0.061815552,-0.23886363,-0.3486397,-24.656252,3.6937501,-20.4375
1763129342619,5.552545,2.6225336,9.834501,0.110108376,1.2692243,-0.35689774,0.061815552,-0.23886363,-0.3486397,-22.06875,6.6937504,-20.475
1763129342626,5.552545,2.6225336,9.834501,0.5523745,0.7707586,-0.53206325,0.061815552,-0.23886363,-0.3486397,-22.06875,6.6937504,-20.475
1763129342627,4.2460637,2.5429723,10.091729,0.5523745,0.7707586,-0.53206325,0.061815552,-0.23886363,-0.3486397,-22.06875,6.6937504,-20.475
1763129342638,4.2460637,2.5429723,10.091729,0.5523745,0.7707586,-0.53206325,0.07096515,-0.23344406,-0.35151696,-22.06875,6.6937504,-20.475
1763129342639,4.2460637,2.5429723,10.091729,0.5523745,0.7707586,-0.53206325,0.07096515,-0.23344406,-0.35151696,-23.04375,4.8562503,-20.8875
1763129342646,4.2460637,2.5429723,10.091729,0.8626938,0.38591382,-0.53603387,0.07096515,-0.23344406,-0.35151696,-23.04375,4.8562503,-20.8875
1763129342647,3.554538,3.246462,9.247063,0.8626938,0.38591382,-0.53603387,0.07096515,-0.23344406,-0.35151696,-23.04375,4.8562503,-20.8875
1763129342658,3.554538,3.246462,9.247063,0.8626938,0.38591382,-0.53603387,0.08158102,-0.23251347,-0.35434848,-23.04375,4.8562503,-20.8875
1763129342659,3.554538,3.246462,9.247063,0.8626938,0.38591382,-0.53603387,0.08158102,-0.23251347,-0.35434848,-22.03125,5.08125,-22.462502
1763129342671,3.554538,3.246462,9.247063,0.8301652,-0.18555018,-0.5392409,0.08158102,-0.23251347,-0.35434848,-22.03125,5.08125,-22.462502
1763129342672,3.3278182,3.9595232,8.119446,0.8301652,-0.18555018,-0.5392409,0.08158102,-0.23251347,-0.35434848,-22.03125,5.08125,-22.462502
1763129342678,3.3278182,3.9595232,8.119446,0.8301652,-0.18555018,-0.5392409,0.089996144,-0.23681407,-0.35770172,-22.03125,5.08125,-22.462502
1763129342679,3.3278182,3.9595232,8.119446,0.8301652,-0.18555018,-0.5392409,0.089996144,-0.23681407,-0.35770172,-21.88125,4.1625004,-22.78125
1763129342689,3.3278182,3.9595232,8.119446,0.61804247,-0.17501275,-0.43966994,0.089996144,-0.23681407,-0.35770172,-21.88125,4.1625004,-22.78125
1763129342689,2.8175488,3.5527434,8.467601,0.61804247,-0.17501275,-0.43966994,0.089996144,-0.23681407,-0.35770172,-21.88125,4.1625004,-22.78125
1763129342698,2.8175488,3.5527434,8.467601,0.61804247,-0.17501275,-0.43966994,0.096463,-0.24038635,-0.36035597,-21.88125,4.1625004,-22.78125
1763129342699,2.8175488,3.5527434,8.467601,0.61804247,-0.17501275,-0.43966994,0.096463,-0.24038635,-0.36035597,-23.4375,2.68125,-22.5375
1763129342710,2.8175488,3.5527434,8.467601,0.42500916,0.53038335,-0.2554942,0.096463,-0.24038635,-0.36035597,-23.4375,2.68125,-22.5375
1763129342712,2.4771698,3.3559337,8.303095,0.42500916,0.53038335,-0.2554942,0.096463,-0.24038635,-0.36035597,-23.4375,2.68125,-22.5375
1763129342721,2.4771698,3.3559337,8.303095,0.42500916,0.53038335,-0.2554942,0.096463,-0.24038635,-0.36035597,-22.143751,3.45,-22.81875
1763129342722,2.4771698,3.3559337,8.303095,0.42500916,0.53038335,-0.2554942,0.1031944,-0.23662062,-0.36115316,-22.143751,3.45,-22.81875
1763129342731,2.4771698,3.3559337,8.303095,0.2623664,1.1722496,-0.09300416,0.1031944,-0.23662062,-0.36115316,-22.143751,3.45,-22.81875
1763129342732,2.4675984,3.9230328,7.978867,0.2623664,1.1722496,-0.09300416,0.1031944,-0.23662062,-0.36115316,-22.143751,3.45,-22.81875
1763129342738,2.4675984,3.9230328,7.978867,0.2623664,1.1722496,-0.09300416,0.11032972,-0.2263553,-0.36029676,-22.143751,3.45,-22.81875
1763129342738,2.4675984,3.9230328,7.978867,0.2623664,1.1722496,-0.09300416,0.11032972,-0.2263553,-0.36029676,-20.175001,4.70625,-23.325
1763129342752,2.4675984,3.9230328,7.978867,0.084452055,1.1578941,-0.09376775,0.11032972,-0.2263553,-0.36029676,-20.175001,4.70625,-23.325
1763129342753,2.3162522,3.8811584,7.4141607,0.084452055,1.1578941,-0.09376775,0.11032972,-0.2263553,-0.36029676,-20.175001,4.70625,-23.325
1763129342758,2.3162522,3.8811584,7.4141607,0.084452055,1.1578941,-0.09376775,0.115912385,-0.2156024,-0.35953847,-20.175001,4.70625,-23.325
1763129342759,2.3162522,3.8811584,7.4141607,0.084452055,1.1578941,-0.09376775,0.115912385,-0.2156024,-0.35953847,-20.475,2.7,-24.393751
1763129342773,2.3162522,3.8811584,7.4141607,-0.07238748,0.95569795,-0.12553272,0.115912385,-0.2156024,-0.35953847,-20.475,2.7,-24.393751
1763129342774,2.0147567,3.3852458,7.75454,-0.07238748,0.95569795,-0.12553272,0.115912385,-0.2156024,-0.35953847,-20.475,2.7,-24.393751
1763129342780,2.0147567,3.3852458,7.75454,-0.07238748,0.95569795,-0.12553272,0.11931823,-0.206171,-0.35967577,-20.475,2.7,-24.393751
1763129342781,2.0147567,3.3852458,7.75454,-0.07238748,0.95569795,-0.12553272,0.11931823,-0.206171,-0.35967577,-19.3875,4.0687504,-25.800001
1763129342794,2.0147567,3.3852458,7.75454,-0.12492185,0.90270543,-0.15241076,0.11931823,-0.206171,-0.35967577,-19.3875,4.0687504,-25.800001
1763129342795,1.8873389,3.1794631,7.9519477,-0.12492185,0.90270543,-0.15241076,0.11931823,-0.206171,-0.35967577,-19.3875,4.0687504,-25.800001
1763129342798,1.8873389,3.1794631,7.9519477,-0.12492185,0.90270543,-0.15241076,0.11931823,-0.206171,-0.35967577,-20.2875,4.1625004,-27.45
1763129342799,1.8873389,3.1794631,7.9519477,-0.12492185,0.90270543,-0.15241076,0.121930465,-0.19691259,-0.36036077,-20.2875,4.1625004,-27.45
1763129342815,1.8873389,3.1794631,7.9519477,0.07620538,0.7480039,-0.30024004,0.121930465,-0.19691259,-0.36036077,-20.2875,4.1625004,-27.45
1763129342816,2.2857437,2.952743,7.923234,0.07620538,0.7480039,-0.30024004,0.121930465,-0.19691259,-0.36036077,-20.2875,4.1625004,-27.45
1763129342818,2.2857437,2.952743,7.923234,0.07620538,0.7480039,-0.30024004,0.12609346,-0.18964857,-0.3622158,-20.2875,4.1625004,-27.45
1763129342819,2.2857437,2.952743,7.923234,0.07620538,0.7480039,-0.30024004,0.12609346,-0.18964857,-0.3622158,-18.4125,5.8875003,-26.00625
1763129342836,2.2857437,2.952743,7.923234,0.6191115,-0.6007855,-0.5679515,0.12609346,-0.18964857,-0.3622158,-18.4125,5.8875003,-26.00625
1763129342837,1.9800607,2.6943183,9.0747795,0.6191115,-0.6007855,-0.5679515,0.12609346,-0.18964857,-0.3622158,-18.4125,5.8875003,-26.00625
1763129342838,1.9800607,2.6943183,9.0747795,0.6191115,-0.6007855,-0.5679515,0.13069442,-0.19690342,-0.36718786,-18.4125,5.8875003,-26.00625
1763129342840,1.9800607,2.6943183,9.0747795,0.6191115,-0.6007855,-0.5679515,0.13069442,-0.19690342,-0.36718786,-18.46875,4.0875,-27.975
1763129342858,1.9800607,2.6943183,9.0747795,1.107956,-1.3058761,-0.5381719,0.13069442,-0.19690342,-0.36718786,-18.46875,4.0875,-27.975
1763129342859,1.9800607,2.6943183,9.0747795,1.107956,-1.3058761,-0.5381719,0.13683604,-0.21251275,-0.37232652,-18.46875,4.0875,-27.975
1763129342860,1.9800607,2.6943183,9.0747795,1.107956,-1.3058761,-0.5381719,0.13683604,-0.21251275,-0.37232652,-18.4125,3.4875002,-25.368752
1763129342862,2.2809582,2.8061829,9.571291,1.107956,-1.3058761,-0.5381719,0.13683604,-0.21251275,-0.37232652,-18.4125,3.4875002,-25.368752
1763129342879,2.2809582,2.8061829,9.571291,1.0193806,-0.9801325,-0.46364638,0.13683604,-0.21251275,-0.37232652,-18.4125,3.4875002,-25.368752
1763129342880,2.2809582,2.8061829,9.571291,1.0193806,-0.9801325,-0.46364638,0.14311607,-0.22474405,-0.3763956,-18.4125,3.4875002,-25.368752
1763129342881,3.0358937,4.302295,8.35454,1.0193806,-0.9801325,-0.46364638,0.14311607,-0.22474405,-0.3763956,-18.4125,3.4875002,-25.368752
1763129342882,3.0358937,4.302295,8.35454,1.0193806,-0.9801325,-0.46364638,0.14311607,-0.22474405,-0.3763956,-19.40625,2.60625,-26.94375
1763129342898,3.0358937,4.302295,8.35454,1.0193806,-0.9801325,-0.46364638,0.14311607,-0.22474405,-0.3763956,-19.0125,3.3375,-25.968752
1763129342899,3.0358937,4.302295,8.35454,0.5381719,-0.7199041,-0.39813113,0.14311607,-0.22474405,-0.3763956,-19.0125,3.3375,-25.968752
1763129342901,2.6195426,4.0642095,7.8071823,0.5381719,-0.7199041,-0.39813113,0.14311607,-0.22474405,-0.3763956,-19.0125,3.3375,-25.968752
1763129342902,2.6195426,4.0642095,7.8071823,0.5381719,-0.7199041,-0.39813113,0.14620714,-0.23298456,-0.37991878,-19.0125,3.3375,-25.968752
1763129342917,2.6195426,4.0642095,7.8071823,0.5381719,-0.7199041,-0.39813113,0.14620714,-0.23298456,-0.37991878,-19.0125,3.3375,-25.968752
1763129342920,2.6195426,4.0642095,7.8071823,0.10354158,-0.7368556,-0.21151192,0.14620714,-0.23298456,-0.37991878,-19.0125,3.3375,-25.968752
1763129342922,2.6195426,4.0642095,7.8071823,0.10354158,-0.7368556,-0.21151192,0.14470454,-0.23987682,-0.3830115,-19.0125,3.3375,-25.968752
1763129342923,3.0083764,4.082155,8.017152,0.10354158,-0.7368556,-0.21151192,0.14470454,-0.23987682,-0.3830115,-19.0125,3.3375,-25.968752
1763129342938,3.0083764,4.082155,8.017152,0.10354158,-0.7368556,-0.21151192,0.14470454,-0.23987682,-0.3830115,-18.69375,3.73125,-26.118752
1763129342941,3.0083764,4.082155,8.017152,0.10354158,-0.7368556,-0.21151192,0.14051248,-0.24632402,-0.3857097,-18.69375,3.73125,-26.118752
1763129342942,3.726223,4.19402,8.316256,0.10354158,-0.7368556,-0.21151192,0.14051248,-0.24632402,-0.3857097,-18.69375,3.73125,-26.118752
1763129342943,3.726223,4.19402,8.316256,-0.1424842,-0.7822124,-0.11911863,0.14051248,-0.24632402,-0.3857097,-18.69375,3.73125,-26.118752
1763129342958,3.726223,4.19402,8.316256,-0.1424842,-0.7822124,-0.11911863,0.14051248,-0.24632402,-0.3857097,-19.1625,4.125,-24.993752
1763129342962,3.726223,4.19402,8.316256,-0.1424842,-0.7822124,-0.11911863,0.1356673,-0.25206837,-0.38943064,-19.1625,4.125,-24.993752
1763129342964,3.726223,4.19402,8.316256,-0.24373505,-0.7571669,-0.21364996,0.1356673,-0.25206837,-0.38943064,-19.1625,4.125,-24.993752
1763129342965,3.9547377,4.38066,8.352147,-0.24373505,-0.7571669,-0.21364996,0.1356673,-0.25206837,-0.38943064,-19.1625,4.125,-24.993752
1763129342979,3.9547377,4.38066,8.352147,-0.24373505,-0.7571669,-0.21364996,0.1356673,-0.25206837,-0.38943064,-18.825,4.51875,-25.9125
1763129342984,3.9547377,4.38066,8.352147,-0.24373505,-0.7571669,-0.21364996,0.13132055,-0.2576879,-0.39415213,-18.825,4.51875,-25.9125
1763129342985,3.9547377,4.38066,8.352147,-0.23167047,-0.75930494,-0.3442223,0.13132055,-0.2576879,-0.39415213,-18.825,4.51875,-25.9125
1763129342986,3.6610186,4.150351,8.40479,-0.23167047,-0.75930494,-0.3442223,0.13132055,-0.2576879,-0.39415213,-18.825,4.51875,-25.9125
1763129342998,3.6610186,4.150351,8.40479,-0.23167047,-0.75930494,-0.3442223,0.13132055,-0.2576879,-0.39415213,-19.85625,2.8500001,-24.862501
1763129343004,3.6610186,4.150351,8.40479,-0.15500695,-0.62827444,-0.3649917,0.13132055,-0.2576879,-0.39415213,-19.85625,2.8500001,-24.862501
1763129343005,3.6610186,4.150351,8.40479,-0.15500695,-0.62827444,-0.3649917,0.12821598,-0.2622945,-0.39879727,-19.85625,2.8500001,-24.862501
1763129343006,3.4103706,4.168297,8.280363,-0.15500695,-0.62827444,-0.3649917,0.12821598,-0.2622945,-0.39879727,-19.85625,2.8500001,-24.862501
1763129343017,3.4103706,4.168297,8.280363,-0.15500695,-0.62827444,-0.3649917,0.12821598,-0.2622945,-0.39879727,-22.5,0.15,-23.41875
1763129343025,3.4103706,4.168297,8.280363,-0.15500695,-0.62827444,-0.3649917,0.12663907,-0.26577878,-0.40230542,-22.5,0.15,-23.41875
1763129343026,3.3726835,4.274778,8.16431,-0.15500695,-0.62827444,-0.3649917,0.12663907,-0.26577878,-0.40230542,-22.5,0.15,-23.41875
1763129343027,3.3726835,4.274778,8.16431,-0.04657844,-0.4489856,-0.28725916,0.12663907,-0.26577878,-0.40230542,-22.5,0.15,-23.41875
1763129343038,3.3726835,4.274778,8.16431,-0.04657844,-0.4489856,-0.28725916,0.12663907,-0.26577878,-0.40230542,-22.06875,1.5375,-23.8125
1763129343045,3.3726835,4.274778,8.16431,0.04016436,-0.35323256,-0.19349141,0.12663907,-0.26577878,-0.40230542,-22.06875,1.5375,-23.8125
1763129343046,3.394817,4.274778,8.001599,0.04016436,-0.35323256,-0.19349141,0.12663907,-0.26577878,-0.40230542,-22.06875,1.5375,-23.8125
1763129343059,3.394817,4.274778,8.001599,0.04016436,-0.35323256,-0.19349141,0.12606685,-0.2688557,-0.40444124,-22.06875,1.5375,-23.8125
1763129343060,3.394817,4.274778,8.001599,0.04016436,-0.35323256,-0.19349141,0.12606685,-0.2688557,-0.40444124,-22.29375,2.9250002,-24.093752
1763129343067,3.394817,4.274778,8.001599,0.07987057,-0.37904158,-0.15134175,0.12606685,-0.2688557,-0.40444124,-22.29375,2.9250002,-24.093752
1763129343068,3.3750763,4.2335014,7.85444,0.07987057,-0.37904158,-0.15134175,0.12606685,-0.2688557,-0.40444124,-22.29375,2.9250002,-24.093752
1763129343078,3.3750763,4.2335014,7.85444,0.07987057,-0.37904158,-0.15134175,0.12561809,-0.27240014,-0.4061436,-22.29375,2.9250002,-24.093752
1763129343079,3.3750763,4.2335014,7.85444,0.07987057,-0.37904158,-0.15134175,0.12561809,-0.27240014,-0.4061436,-22.425001,1.44375,-24.956251
1763129343088,3.3750763,4.2335014,7.85444,0.058032155,-0.3903426,-0.14278965,0.12561809,-0.27240014,-0.4061436,-22.425001,1.44375,-24.956251
1763129343089,3.5090744,4.2867417,7.70788,0.058032155,-0.3903426,-0.14278965,0.12561809,-0.27240014,-0.4061436,-22.425001,1.44375,-24.956251
1763129343097,3.5090744,4.2867417,7.70788,0.058032155,-0.3903426,-0.14278965,0.124923855,-0.27594492,-0.40776435,-22.425001,1.44375,-24.956251
1763129343098,3.5090744,4.2867417,7.70788,0.058032155,-0.3903426,-0.14278965,0.124923855,-0.27594492,-0.40776435,-21.54375,2.2875001,-25.06875
1763129343109,3.5090744,4.2867417,7.70788,0.016493348,-0.29184064,-0.1357647,0.124923855,-0.27594492,-0.40776435,-21.54375,2.2875001,-25.06875
1763129343110,3.609573,4.3005004,7.6199436,0.016493348,-0.29184064,-0.1357647,0.124923855,-0.27594492,-0.40776435,-21.54375,2.2875001,-25.06875
1763129343121,3.609573,4.3005004,7.6199436,0.016493348,-0.29184064,-0.1357647,0.124269366,-0.27846012,-0.40926087,-21.54375,2.2875001,-25.06875
1763129343122,3.609573,4.3005004,7.6199436,0.016493348,-0.29184064,-0.1357647,0.124269366,-0.27846012,-0.40926087,-22.331251,0.675,-23.19375
1763129343129,3.609573,4.3005004,7.6199436,-0.0013744457,-0.20433427,-0.123852834,0.124269366,-0.27846012,-0.40926087,-22.331251,0.675,-23.19375
1763129343130,3.510869,4.281956,7.6103725,-0.0013744457,-0.20433427,-0.123852834,0.124269366,-0.27846012,-0.40926087,-22.331251,0.675,-23.19375
1763129343138,3.510869,4.281956,7.6103725,-0.0013744457,-0.20433427,-0.123852834,0.123819165,-0.2801344,-0.4104858,-22.331251,0.675,-23.19375
1763129343139,3.510869,4.281956,7.6103725,-0.0013744457,-0.20433427,-0.123852834,0.123819165,-0.2801344,-0.4104858,-22.7625,0.24375,-23.962502
1763129343151,3.510869,4.281956,7.6103725,-0.013744458,-0.2244928,-0.09636392,0.123819165,-0.2801344,-0.4104858,-22.7625,0.24375,-23.962502
1763129343152,3.4803605,4.286144,7.7126656,-0.013744458,-0.2244928,-0.09636392,0.123819165,-0.2801344,-0.4104858,-22.7625,0.24375,-23.962502
1763129343157,3.4803605,4.286144,7.7126656,-0.013744458,-0.2244928,-0.09636392,0.123096205,-0.28194362,-0.4115421,-22.7625,0.24375,-23.962502
1763129343158,3.4803605,4.286144,7.7126656,-0.013744458,-0.2244928,-0.09636392,0.123096205,-0.28194362,-0.4115421,-23.41875,1.8750001,-22.931252
1763129343172,3.4803605,4.286144,7.7126656,-0.029168794,-0.2441932,-0.057268575,0.123096205,-0.28194362,-0.4115421,-23.41875,1.8750001,-22.931252
1763129343173,3.4630125,4.3645086,7.8089767,-0.029168794,-0.2441932,-0.057268575,0.123096205,-0.28194362,-0.4115421,-23.41875,1.8750001,-22.931252
1763129343180,3.4630125,4.3645086,7.8089767,-0.029168794,-0.2441932,-0.057268575,0.12201855,-0.28389257,-0.41237164,-23.41875,1.8750001,-22.931252
1763129343181,3.4630125,4.3645086,7.8089767,-0.029168794,-0.2441932,-0.057268575,0.12201855,-0.28389257,-0.41237164,-23.118752,1.4625001,-21.675001
1763129343192,3.4630125,4.3645086,7.8089767,-0.01282816,-0.21364996,0.019394957,0.12201855,-0.28389257,-0.41237164,-23.118752,1.4625001,-21.675001
1763129343193,3.6179478,4.433302,8.109874,-0.01282816,-0.21364996,0.019394957,0.12201855,-0.28389257,-0.41237164,-23.118752,1.4625001,-21.675001
1763129343198,3.6179478,4.433302,8.109874,-0.01282816,-0.21364996,0.019394957,0.121012576,-0.28571346,-0.41241577,-23.118752,1.4625001,-21.675001
1763129343199,3.6179478,4.433302,8.109874,-0.01282816,-0.21364996,0.019394957,0.121012576,-0.28571346,-0.41241577,-22.837502,2.325,-23.643751
1763129343214,3.6179478,4.433302,8.109874,0.12965605,-0.09071342,0.081397735,0.121012576,-0.28571346,-0.41241577,-22.837502,2.325,-23.643751
1763129343215,3.7746778,4.536792,8.303095,0.12965605,-0.09071342,0.081397735,0.121012576,-0.28571346,-0.41241577,-22.837502,2.325,-23.643751
1763129343220,3.7746778,4.536792,8.303095,0.12965605,-0.09071342,0.081397735,0.121549726,-0.28713635,-0.41149476,-22.837502,2.325,-23.643751
1763129343220,3.7746778,4.536792,8.303095,0.12965605,-0.09071342,0.081397735,0.121549726,-0.28713635,-0.41149476,-23.41875,1.8750001,-22.63125
1763129343234,3.7746778,4.536792,8.303095,0.3065014,0.27595815,0.11026109,0.121549726,-0.28713635,-0.41149476,-23.41875,1.8750001,-22.63125
1763129343235,3.900301,4.3818564,7.697112,0.3065014,0.27595815,0.11026109,0.121549726,-0.28713635,-0.41149476,-23.41875,1.8750001,-22.63125
1763129343237,3.900301,4.3818564,7.697112,0.3065014,0.27595815,0.11026109,0.121549726,-0.28713635,-0.41149476,-24.112501,0.58125,-22.800001
1763129343237,3.900301,4.3818564,7.697112,0.3065014,0.27595815,0.11026109,0.12515184,-0.28607452,-0.40929443,-24.112501,0.58125,-22.800001
1763129343255,3.900301,4.3818564,7.697112,0.22174391,0.26572618,0.102778,0.12515184,-0.28607452,-0.40929443,-24.112501,0.58125,-22.800001
1763129343256,3.6478581,4.11386,7.115058,0.22174391,0.26572618,0.102778,0.12515184,-0.28607452,-0.40929443,-24.112501,0.58125,-22.800001
1763129343258,3.6478581,4.11386,7.115058,0.22174391,0.26572618,0.102778,0.12515184,-0.28607452,-0.40929443,-24.993752,-1.85625,-21.50625
1763129343259,3.6478581,4.11386,7.115058,0.22174391,0.26572618,0.102778,0.12798306,-0.28480956,-0.40728632,-24.993752,-1.85625,-21.50625
1763129343278,3.6478581,4.11386,7.115058,-0.018631376,0.115453444,0.09392046,0.12798306,-0.28480956,-0.40728632,-24.993752,-1.85625,-21.50625
1763129343279,3.6478581,4.11386,7.115058,-0.018631376,0.115453444,0.09392046,0.12804903,-0.283866,-0.40625143,-24.993752,-1.85625,-21.50625
1763129343281,3.6478581,4.11386,7.115058,-0.018631376,0.115453444,0.09392046,0.12804903,-0.283866,-0.40625143,-26.081251,-0.675,-21.993752
1763129343282,3.9655054,4.2705903,7.068398,-0.018631376,0.115453444,0.09392046,0.12804903,-0.283866,-0.40625143,-26.081251,-0.675,-21.993752
1763129343299,4.106084,4.185645,7.630113,-0.018631376,0.115453444,0.09392046,0.12804903,-0.283866,-0.40625143,-26.081251,-0.675,-21.993752
1763129343299,4.106084,4.185645,7.630113,-0.018631376,0.115453444,0.09392046,0.12608029,-0.28323787,-0.40641072,-26.081251,-0.675,-21.993752
1763129343300,4.106084,4.185645,7.630113,-0.20967934,-0.012064579,0.029626941,0.12608029,-0.28323787,-0.40641072,-26.081251,-0.675,-21.993752
1763129343301,4.106084,4.185645,7.630113,-0.20967934,-0.012064579,0.029626941,0.12608029,-0.28323787,-0.40641072,-22.48125,1.5937501,-23.34375
1763129343319,4.106084,4.185645,7.630113,-0.23655738,-0.06994402,-0.056810424,0.12608029,-0.28323787,-0.40641072,-22.48125,1.5937501,-23.34375
1763129343320,4.106084,4.185645,7.630113,-0.23655738,-0.06994402,-0.056810424,0.12386072,-0.2828334,-0.40737927,-22.48125,1.5937501,-23.34375
1763129343321,3.807579,4.152744,7.764111,-0.23655738,-0.06994402,-0.056810424,0.12386072,-0.2828334,-0.40737927,-22.48125,1.5937501,-23.34375
1763129343323,3.807579,4.152744,7.764111,-0.23655738,-0.06994402,-0.056810424,0.12386072,-0.2828334,-0.40737927,-23.2875,1.0875001,-23.4375
1763129343340,3.807579,4.152744,7.764111,-0.23655738,-0.06994402,-0.056810424,0.12386072,-0.2828334,-0.40737927,-24.618752,-0.31875002,-21.6375
1763129343341,3.807579,4.152744,7.764111,-0.24938555,0.22739442,-0.031459536,0.12386072,-0.2828334,-0.40737927,-24.618752,-0.31875002,-21.6375
1763129343341,3.807579,4.152744,7.764111,-0.24938555,0.22739442,-0.031459536,0.122673035,-0.27969292,-0.40801698,-24.618752,-0.31875002,-21.6375
1763129343342,3.6382868,4.3609195,7.6462646,-0.24938555,0.22739442,-0.031459536,0.122673035,-0.27969292,-0.40801698,-24.618752,-0.31875002,-21.6375
